"Time (s)","Linear Acceleration x (m/s^2)","Linear Acceleration y (m/s^2)","Linear Acceleration z (m/s^2)","Absolute acceleration (m/s^2)"
0.000000000E0,-5.249440074E-1,1.749600023E-1,-5.213450193E-1,7.602485400E-1
6.534840000E-2,-4.589560032E-1,1.455609947E-1,-5.253599882E-1,7.126231355E-1
7.034751500E-2,-4.611360133E-1,1.286019981E-1,-5.369629860E-1,7.193845599E-1
7.534663200E-2,-4.611360133E-1,1.286019981E-1,-5.369629860E-1,7.193845599E-1
8.034586300E-2,-4.611360133E-1,1.286019981E-1,-5.369629860E-1,7.193845599E-1
8.534509400E-2,-4.611360133E-1,1.286019981E-1,-5.369629860E-1,7.193845599E-1
9.034443900E-2,-4.270650148E-1,9.067200124E-2,-2.943499982E-1,5.265433127E-1
9.534378600E-2,-4.270650148E-1,9.067200124E-2,-2.943499982E-1,5.265433127E-1
1.003419760E-1,-4.270650148E-1,9.067200124E-2,-2.943499982E-1,5.265433127E-1
1.053401710E-1,-4.270650148E-1,9.067200124E-2,-2.943499982E-1,5.265433127E-1
1.103385940E-1,-3.489649892E-1,4.997099936E-2,-8.760900050E-2,3.632478512E-1
1.153370170E-1,-3.489649892E-1,4.997099936E-2,-8.760900050E-2,3.632478512E-1
1.203356420E-1,-3.489649892E-1,4.997099936E-2,-8.760900050E-2,3.632478512E-1
1.253342570E-1,-3.489649892E-1,4.997099936E-2,-8.760900050E-2,3.632478512E-1
1.303328720E-1,-2.649469972E-1,1.367400028E-2,6.008800119E-2,2.720192226E-1
1.353314870E-1,-2.649469972E-1,1.367400028E-2,6.008800119E-2,2.720192226E-1
1.403305830E-1,-2.649469972E-1,1.367400028E-2,6.008800119E-2,2.720192226E-1
1.453296980E-1,-2.649469972E-1,1.367400028E-2,6.008800119E-2,2.720192226E-1
1.503290590E-1,-1.920520067E-1,-2.011499926E-2,1.915870011E-1,2.720186859E-1
1.553284060E-1,-1.920520067E-1,-2.011499926E-2,1.915870011E-1,2.720186859E-1
1.603273670E-1,-1.920520067E-1,-2.011499926E-2,1.915870011E-1,2.720186859E-1
1.653263300E-1,-1.920520067E-1,-2.011499926E-2,1.915870011E-1,2.720186859E-1
1.703244780E-1,-1.415610015E-1,-4.665999860E-2,3.116340041E-1,3.454452564E-1
1.753226310E-1,-1.415610015E-1,-4.665999860E-2,3.116340041E-1,3.454452564E-1
1.803215120E-1,-1.415610015E-1,-4.665999860E-2,3.116340041E-1,3.454452564E-1
1.853203970E-1,-1.415610015E-1,-4.665999860E-2,3.116340041E-1,3.454452564E-1
1.903201270E-1,-1.103409976E-1,-6.510300189E-2,4.174860120E-1,4.367013932E-1
1.953198580E-1,-1.103409976E-1,-6.510300189E-2,4.174860120E-1,4.367013932E-1
2.003181500E-1,-1.103409976E-1,-6.510300189E-2,4.174860120E-1,4.367013932E-1
2.053164590E-1,-1.103409976E-1,-6.510300189E-2,4.174860120E-1,4.367013932E-1
2.103149210E-1,-8.309300244E-2,-7.683899999E-2,4.970969856E-1,5.098177047E-1
2.153133820E-1,-8.309300244E-2,-7.683899999E-2,4.970969856E-1,5.098177047E-1
2.203112030E-1,-8.309300244E-2,-7.683899999E-2,4.970969856E-1,5.098177047E-1
2.253090120E-1,-8.309300244E-2,-7.683899999E-2,4.970969856E-1,5.098177047E-1
2.303076660E-1,-5.641600117E-2,-9.380400181E-2,5.557119846E-1,5.663901180E-1
2.353063190E-1,-5.641600117E-2,-9.380400181E-2,5.557119846E-1,5.663901180E-1
2.403039580E-1,-5.641600117E-2,-9.380400181E-2,5.557119846E-1,5.663901180E-1
2.453016130E-1,-5.641600117E-2,-9.380400181E-2,5.557119846E-1,5.663901180E-1
2.503010380E-1,-3.734999895E-2,-1.106519997E-1,5.968430042E-1,6.081615403E-1
2.553004590E-1,-3.734999895E-2,-1.106519997E-1,5.968430042E-1,6.081615403E-1
2.602987270E-1,-3.734999895E-2,-1.106519997E-1,5.968430042E-1,6.081615403E-1
2.652969980E-1,-3.734999895E-2,-1.106519997E-1,5.968430042E-1,6.081615403E-1
2.702958060E-1,-1.736599952E-2,-1.200810000E-1,6.153270006E-1,6.271748896E-1
2.752946130E-1,-1.736599952E-2,-1.200810000E-1,6.153270006E-1,6.271748896E-1
2.802927420E-1,-1.736599952E-2,-1.200810000E-1,6.153270006E-1,6.271748896E-1
2.852908570E-1,-1.736599952E-2,-1.200810000E-1,6.153270006E-1,6.271748896E-1
2.902893580E-1,-5.469999742E-4,-1.141809970E-1,5.910609961E-1,6.019889537E-1
2.952878570E-1,-5.469999742E-4,-1.141809970E-1,5.910609961E-1,6.019889537E-1
3.002862510E-1,-5.469999742E-4,-1.141809970E-1,5.910609961E-1,6.019889537E-1
3.052846760E-1,-5.469999742E-4,-1.141809970E-1,5.910609961E-1,6.019889537E-1
3.102833290E-1,2.221900038E-2,-9.966599941E-2,5.398730040E-1,5.494450435E-1
3.152819820E-1,2.221900038E-2,-9.966599941E-2,5.398730040E-1,5.494450435E-1
3.202801350E-1,2.221900038E-2,-9.966599941E-2,5.398730040E-1,5.494450435E-1
3.252782900E-1,2.221900038E-2,-9.966599941E-2,5.398730040E-1,5.494450435E-1
3.302765850E-1,4.655399919E-2,-6.792400032E-2,4.688960016E-1,4.760718485E-1
3.352748920E-1,4.655399919E-2,-6.792400032E-2,4.688960016E-1,4.760718485E-1
3.402729960E-1,4.655399919E-2,-6.792400032E-2,4.688960016E-1,4.760718485E-1
3.452711130E-1,4.655399919E-2,-6.792400032E-2,4.688960016E-1,4.760718485E-1
3.502694210E-1,7.315500081E-2,-3.079400025E-2,3.983620107E-1,4.061923389E-1
3.552677280E-1,7.315500081E-2,-3.079400025E-2,3.983620107E-1,4.061923389E-1
3.602659190E-1,7.315500081E-2,-3.079400025E-2,3.983620107E-1,4.061923389E-1
3.652641120E-1,7.315500081E-2,-3.079400025E-2,3.983620107E-1,4.061923389E-1
3.702630360E-1,1.057650000E-1,4.939999781E-4,3.620789945E-1,3.772103889E-1
3.752619590E-1,1.057650000E-1,4.939999781E-4,3.620789945E-1,3.772103889E-1
3.802612030E-1,1.057650000E-1,4.939999781E-4,3.620789945E-1,3.772103889E-1
3.852604340E-1,1.057650000E-1,4.939999781E-4,3.620789945E-1,3.772103889E-1
3.902592030E-1,1.434839964E-1,2.243999951E-2,3.740029931E-1,4.012099820E-1
3.952579740E-1,1.434839964E-1,2.243999951E-2,3.740029931E-1,4.012099820E-1
4.002564060E-1,1.434839964E-1,2.243999951E-2,3.740029931E-1,4.012099820E-1
4.052548670E-1,1.434839964E-1,2.243999951E-2,3.740029931E-1,4.012099820E-1
4.102531370E-1,1.749189943E-1,4.161300138E-2,4.200839996E-1,4.569451424E-1
4.152514060E-1,1.749189943E-1,4.161300138E-2,4.200839996E-1,4.569451424E-1
4.202491130E-1,1.749189943E-1,4.161300138E-2,4.200839996E-1,4.569451424E-1
4.252468060E-1,1.749189943E-1,4.161300138E-2,4.200839996E-1,4.569451424E-1
4.302443830E-1,1.878519952E-1,6.331799924E-2,4.767839909E-1,5.163530915E-1
4.352419600E-1,1.878519952E-1,6.331799924E-2,4.767839909E-1,5.163530915E-1
4.402402140E-1,1.878519952E-1,6.331799924E-2,4.767839909E-1,5.163530915E-1
4.452384830E-1,1.878519952E-1,6.331799924E-2,4.767839909E-1,5.163530915E-1
4.502365200E-1,1.767089963E-1,8.265300095E-2,5.189319849E-1,5.543897482E-1
4.552345590E-1,1.767089963E-1,8.265300095E-2,5.189319849E-1,5.543897482E-1
4.602325600E-1,1.767089963E-1,8.265300095E-2,5.189319849E-1,5.543897482E-1
4.652305590E-1,1.767089963E-1,8.265300095E-2,5.189319849E-1,5.543897482E-1
4.702295950E-1,1.516020000E-1,9.330700338E-2,5.303069949E-1,5.593879442E-1
4.752286320E-1,1.516020000E-1,9.330700338E-2,5.303069949E-1,5.593879442E-1
4.802269390E-1,1.516020000E-1,9.330700338E-2,5.303069949E-1,5.593879442E-1
4.852252480E-1,1.516020000E-1,9.330700338E-2,5.303069949E-1,5.593879442E-1
4.902235560E-1,1.245220006E-1,9.236399829E-2,5.239859819E-1,5.464413473E-1
4.952218630E-1,1.245220006E-1,9.236399829E-2,5.239859819E-1,5.464413473E-1
5.002205130E-1,1.245220006E-1,9.236399829E-2,5.239859819E-1,5.464413473E-1
5.052191660E-1,1.245220006E-1,9.236399829E-2,5.239859819E-1,5.464413473E-1
5.102174350E-1,1.053140014E-1,8.003100008E-2,5.194969773E-1,5.360719255E-1
5.152157040E-1,1.053140014E-1,8.003100008E-2,5.194969773E-1,5.360719255E-1
5.202137100E-1,1.053140014E-1,8.003100008E-2,5.194969773E-1,5.360719255E-1
5.252117090E-1,1.053140014E-1,8.003100008E-2,5.194969773E-1,5.360719255E-1
5.302110950E-1,1.006420031E-1,6.202600151E-2,5.227550268E-1,5.359560203E-1
5.352104780E-1,1.006420031E-1,6.202600151E-2,5.227550268E-1,5.359560203E-1
5.402083470E-1,1.006420031E-1,6.202600151E-2,5.227550268E-1,5.359560203E-1
5.452062340E-1,1.006420031E-1,6.202600151E-2,5.227550268E-1,5.359560203E-1
5.502046570E-1,9.989999980E-2,4.571000114E-2,5.267559886E-1,5.380904066E-1
5.552030800E-1,9.989999980E-2,4.571000114E-2,5.267559886E-1,5.380904066E-1
5.602015300E-1,9.989999980E-2,4.571000114E-2,5.267559886E-1,5.380904066E-1
5.651999930E-1,9.989999980E-2,4.571000114E-2,5.267559886E-1,5.380904066E-1
5.701990690E-1,9.299699962E-2,3.896699846E-2,5.174750090E-1,5.272070313E-1
5.751981460E-1,9.299699962E-2,3.896699846E-2,5.174750090E-1,5.272070313E-1
5.801969190E-1,9.299699962E-2,3.896699846E-2,5.174750090E-1,5.272070313E-1
5.851956900E-1,9.299699962E-2,3.896699846E-2,5.174750090E-1,5.272070313E-1
5.901940360E-1,7.729700208E-2,4.516199976E-2,4.911510050E-1,4.992431697E-1
5.951923830E-1,7.729700208E-2,4.516199976E-2,4.911510050E-1,4.992431697E-1
6.001909450E-1,7.729700208E-2,4.516199976E-2,4.911510050E-1,4.992431697E-1
6.051895220E-1,7.729700208E-2,4.516199976E-2,4.911510050E-1,4.992431697E-1
6.101875200E-1,5.128499866E-2,5.903999880E-2,4.528990090E-1,4.596013326E-1
6.151855210E-1,5.128499866E-2,5.903999880E-2,4.528990090E-1,4.596013326E-1
6.201839790E-1,5.128499866E-2,5.903999880E-2,4.528990090E-1,4.596013326E-1
6.251824400E-1,5.128499866E-2,5.903999880E-2,4.528990090E-1,4.596013326E-1
6.301800160E-1,2.830100060E-2,7.238700241E-2,4.092809856E-1,4.165954271E-1
6.351775930E-1,2.830100060E-2,7.238700241E-2,4.092809856E-1,4.165954271E-1
6.401744870E-1,2.830100060E-2,7.238700241E-2,4.092809856E-1,4.165954271E-1
6.451713720E-1,2.830100060E-2,7.238700241E-2,4.092809856E-1,4.165954271E-1
6.501701820E-1,1.836800016E-2,7.436999679E-2,3.744260073E-1,3.821820440E-1
6.551689870E-1,1.836800016E-2,7.436999679E-2,3.744260073E-1,3.821820440E-1
6.601671400E-1,1.836800016E-2,7.436999679E-2,3.744260073E-1,3.821820440E-1
6.651652950E-1,1.836800016E-2,7.436999679E-2,3.744260073E-1,3.821820440E-1
6.701641810E-1,1.189900003E-2,7.046999782E-2,3.608199954E-1,3.678296832E-1
6.751630640E-1,1.189900003E-2,7.046999782E-2,3.608199954E-1,3.678296832E-1
6.801621270E-1,1.189900003E-2,7.046999782E-2,3.608199954E-1,3.678296832E-1
6.851612040E-1,1.189900003E-2,7.046999782E-2,3.608199954E-1,3.678296832E-1
6.901593960E-1,1.027300023E-2,6.237399951E-2,3.563689888E-1,3.619321849E-1
6.951575890E-1,1.027300023E-2,6.237399951E-2,3.563689888E-1,3.619321849E-1
7.001557480E-1,1.027300023E-2,6.237399951E-2,3.563689888E-1,3.619321849E-1
7.051539010E-1,1.027300023E-2,6.237399951E-2,3.563689888E-1,3.619321849E-1
7.101529800E-1,3.855000017E-3,6.123000011E-2,3.503650129E-1,3.556959603E-1
7.151520550E-1,3.855000017E-3,6.123000011E-2,3.503650129E-1,3.556959603E-1
7.201505010E-1,3.855000017E-3,6.123000011E-2,3.503650129E-1,3.556959603E-1
7.251489640E-1,3.855000017E-3,6.123000011E-2,3.503650129E-1,3.556959603E-1
7.301480410E-1,-1.769799925E-2,7.646100223E-2,3.326990008E-1,3.418305563E-1
7.351471180E-1,-1.769799925E-2,7.646100223E-2,3.326990008E-1,3.418305563E-1
7.401464960E-1,-1.769799925E-2,7.646100223E-2,3.326990008E-1,3.418305563E-1
7.451458810E-1,-1.769799925E-2,7.646100223E-2,3.326990008E-1,3.418305563E-1
7.501449190E-1,-4.105899855E-2,9.355799854E-2,3.158029914E-1,3.319193725E-1
7.551439580E-1,-4.105899855E-2,9.355799854E-2,3.158029914E-1,3.319193725E-1
7.601432470E-1,-4.105899855E-2,9.355799854E-2,3.158029914E-1,3.319193725E-1
7.651425160E-1,-4.105899855E-2,9.355799854E-2,3.158029914E-1,3.319193725E-1
7.701422080E-1,-5.150000006E-2,1.030170023E-1,3.074660003E-1,3.283292465E-1
7.751419010E-1,-5.150000006E-2,1.030170023E-1,3.074660003E-1,3.283292465E-1
7.801420160E-1,-5.150000006E-2,1.030170023E-1,3.074660003E-1,3.283292465E-1
7.851421310E-1,-5.150000006E-2,1.030170023E-1,3.074660003E-1,3.283292465E-1
7.901407460E-1,-5.817899853E-2,1.096220016E-1,2.938579917E-1,3.189894957E-1
7.951393630E-1,-5.817899853E-2,1.096220016E-1,2.938579917E-1,3.189894957E-1
8.001384890E-1,-5.817899853E-2,1.096220016E-1,2.938579917E-1,3.189894957E-1
8.051376040E-1,-5.817899853E-2,1.096220016E-1,2.938579917E-1,3.189894957E-1
8.101362180E-1,-6.844499707E-2,1.151269972E-1,2.828379869E-1,3.129477112E-1
8.151348350E-1,-6.844499707E-2,1.151269972E-1,2.828379869E-1,3.129477112E-1
8.201339250E-1,-6.844499707E-2,1.151269972E-1,2.828379869E-1,3.129477112E-1
8.251330020E-1,-6.844499707E-2,1.151269972E-1,2.828379869E-1,3.129477112E-1
8.301317310E-1,-6.891199946E-2,1.259219944E-1,2.741439939E-1,3.094513560E-1
8.351304640E-1,-6.891199946E-2,1.259219944E-1,2.741439939E-1,3.094513560E-1
8.401303490E-1,-6.891199946E-2,1.259219944E-1,2.741439939E-1,3.094513560E-1
8.451302320E-1,-6.891199946E-2,1.259219944E-1,2.741439939E-1,3.094513560E-1
8.501286490E-1,-6.588999927E-2,1.425019950E-1,2.568419874E-1,3.010251103E-1
8.551270740E-1,-6.588999927E-2,1.425019950E-1,2.568419874E-1,3.010251103E-1
8.601252660E-1,-6.588999927E-2,1.425019950E-1,2.568419874E-1,3.010251103E-1
8.651234590E-1,-6.588999927E-2,1.425019950E-1,2.568419874E-1,3.010251103E-1
8.701237440E-1,-6.703399867E-2,1.536320001E-1,2.326720059E-1,2.867622896E-1
8.751240130E-1,-6.703399867E-2,1.536320001E-1,2.326720059E-1,2.867622896E-1
8.801231020E-1,-6.703399867E-2,1.536320001E-1,2.326720059E-1,2.867622896E-1
8.851221790E-1,-6.703399867E-2,1.536320001E-1,2.326720059E-1,2.867622896E-1
8.901211410E-1,-7.190799713E-2,1.625510007E-1,2.171149999E-1,2.805931415E-1
8.951201040E-1,-7.190799713E-2,1.625510007E-1,2.171149999E-1,2.805931415E-1
9.001186800E-1,-7.190799713E-2,1.625510007E-1,2.171149999E-1,2.805931415E-1
9.051172570E-1,-7.190799713E-2,1.625510007E-1,2.171149999E-1,2.805931415E-1
9.101156030E-1,-7.684200257E-2,1.703879982E-1,2.096139938E-1,2.808465590E-1
9.151139500E-1,-7.684200257E-2,1.703879982E-1,2.096139938E-1,2.808465590E-1
9.201133480E-1,-7.684200257E-2,1.703879982E-1,2.096139938E-1,2.808465590E-1
9.251127330E-1,-7.684200257E-2,1.703879982E-1,2.096139938E-1,2.808465590E-1
9.301116550E-1,-8.365099877E-2,1.773969978E-1,2.158560008E-1,2.916521858E-1
9.351105780E-1,-8.365099877E-2,1.773969978E-1,2.158560008E-1,2.916521858E-1
9.401091610E-1,-8.365099877E-2,1.773969978E-1,2.158560008E-1,2.916521858E-1
9.451077380E-1,-8.365099877E-2,1.773969978E-1,2.158560008E-1,2.916521858E-1
9.501061990E-1,-8.216799796E-2,1.768119931E-1,2.337460071E-1,3.043866893E-1
9.551046600E-1,-8.216799796E-2,1.768119931E-1,2.337460071E-1,3.043866893E-1
9.601035700E-1,-8.216799796E-2,1.768119931E-1,2.337460071E-1,3.043866893E-1
9.651024930E-1,-8.216799796E-2,1.768119931E-1,2.337460071E-1,3.043866893E-1
9.701008380E-1,-7.541500032E-2,1.764139980E-1,2.482530028E-1,3.137497002E-1
9.750991850E-1,-7.541500032E-2,1.764139980E-1,2.482530028E-1,3.137497002E-1
9.800985790E-1,-7.541500032E-2,1.764139980E-1,2.482530028E-1,3.137497002E-1
9.850979640E-1,-7.541500032E-2,1.764139980E-1,2.482530028E-1,3.137497002E-1
9.900966930E-1,-8.072800189E-2,1.823090017E-1,2.625899911E-1,3.297075762E-1
9.950954240E-1,-8.072800189E-2,1.823090017E-1,2.625899911E-1,3.297075762E-1
1.000093925E0,-8.072800189E-2,1.823090017E-1,2.625899911E-1,3.297075762E-1
1.005092426E0,-8.072800189E-2,1.823090017E-1,2.625899911E-1,3.297075762E-1
1.010091926E0,-9.247999638E-2,1.858810037E-1,2.722820044E-1,3.424058808E-1
1.015091425E0,-9.247999638E-2,1.858810037E-1,2.722820044E-1,3.424058808E-1
1.020089144E0,-9.247999638E-2,1.858810037E-1,2.722820044E-1,3.424058808E-1
1.025086877E0,-9.247999638E-2,1.858810037E-1,2.722820044E-1,3.424058808E-1
1.030085493E0,-9.613999724E-2,1.839579940E-1,2.820729911E-1,3.502122427E-1
1.035084108E0,-9.613999724E-2,1.839579940E-1,2.820729911E-1,3.502122427E-1
1.040082399E0,-9.613999724E-2,1.839579940E-1,2.820729911E-1,3.502122427E-1
1.045080708E0,-9.613999724E-2,1.839579940E-1,2.820729911E-1,3.502122427E-1
1.050079324E0,-9.791500121E-2,1.789129972E-1,2.866530120E-1,3.518055675E-1
1.055077939E0,-9.791500121E-2,1.789129972E-1,2.866530120E-1,3.518055675E-1
1.060075870E0,-9.791500121E-2,1.789129972E-1,2.866530120E-1,3.518055675E-1
1.065073871E0,-9.791500121E-2,1.789129972E-1,2.866530120E-1,3.518055675E-1
1.070072756E0,-1.000489965E-1,1.780489981E-1,2.742089927E-1,3.419090802E-1
1.075071641E0,-1.000489965E-1,1.780489981E-1,2.742089927E-1,3.419090802E-1
1.080071756E0,-1.000489965E-1,1.780489981E-1,2.742089927E-1,3.419090802E-1
1.085071911E0,-1.000489965E-1,1.780489981E-1,2.742089927E-1,3.419090802E-1
1.090070409E0,-1.061009988E-1,1.839880049E-1,2.477259934E-1,3.263084058E-1
1.095068910E0,-1.061009988E-1,1.839880049E-1,2.477259934E-1,3.263084058E-1
1.100067666E0,-1.061009988E-1,1.839880049E-1,2.477259934E-1,3.263084058E-1
1.105066435E0,-1.061009988E-1,1.839880049E-1,2.477259934E-1,3.263084058E-1
1.110065011E0,-1.143169999E-1,1.842650026E-1,2.233980000E-1,3.113336379E-1
1.115063588E0,-1.143169999E-1,1.842650026E-1,2.233980000E-1,3.113336379E-1
1.120062045E0,-1.143169999E-1,1.842650026E-1,2.233980000E-1,3.113336379E-1
1.125060508E0,-1.143169999E-1,1.842650026E-1,2.233980000E-1,3.113336379E-1
1.130059123E0,-1.165070012E-1,1.823100001E-1,2.107540071E-1,3.020398467E-1
1.135057738E0,-1.165070012E-1,1.823100001E-1,2.107540071E-1,3.020398467E-1
1.140056982E0,-1.165070012E-1,1.823100001E-1,2.107540071E-1,3.020398467E-1
1.145056213E0,-1.165070012E-1,1.823100001E-1,2.107540071E-1,3.020398467E-1
1.150055290E0,-1.079550013E-1,1.767490059E-1,2.113869935E-1,2.959374164E-1
1.155054367E0,-1.079550013E-1,1.767490059E-1,2.113869935E-1,2.959374164E-1
1.160053016E0,-1.079550013E-1,1.767490059E-1,2.113869935E-1,2.959374164E-1
1.165051671E0,-1.079550013E-1,1.767490059E-1,2.113869935E-1,2.959374164E-1
1.170051518E0,-8.635199815E-2,1.634880006E-1,2.244729996E-1,2.908145826E-1
1.175051363E0,-8.635199815E-2,1.634880006E-1,2.244729996E-1,2.908145826E-1
1.180050140E0,-8.635199815E-2,1.634880006E-1,2.244729996E-1,2.908145826E-1
1.185048911E0,-8.635199815E-2,1.634880006E-1,2.244729996E-1,2.908145826E-1
1.190047680E0,-6.418900192E-2,1.444430053E-1,2.468280047E-1,2.931007910E-1
1.195046449E0,-6.418900192E-2,1.444430053E-1,2.468280047E-1,2.931007910E-1
1.200045055E0,-6.418900192E-2,1.444430053E-1,2.468280047E-1,2.931007910E-1
1.205043670E0,-6.418900192E-2,1.444430053E-1,2.468280047E-1,2.931007910E-1
1.210042401E0,-4.637100175E-2,1.283430010E-1,2.699950039E-1,3.025218965E-1
1.215041132E0,-4.637100175E-2,1.283430010E-1,2.699950039E-1,3.025218965E-1
1.220039492E0,-4.637100175E-2,1.283430010E-1,2.699950039E-1,3.025218965E-1
1.225037839E0,-4.637100175E-2,1.283430010E-1,2.699950039E-1,3.025218965E-1
1.230037532E0,-3.168600053E-2,1.235790029E-1,2.889260054E-1,3.158385809E-1
1.235037223E0,-3.168600053E-2,1.235790029E-1,2.889260054E-1,3.158385809E-1
1.240036281E0,-3.168600053E-2,1.235790029E-1,2.889260054E-1,3.158385809E-1
1.245035358E0,-3.168600053E-2,1.235790029E-1,2.889260054E-1,3.158385809E-1
1.250033974E0,-2.638000064E-2,1.277319938E-1,2.977530062E-1,3.250664846E-1
1.255032589E0,-2.638000064E-2,1.277319938E-1,2.977530062E-1,3.250664846E-1
1.260030887E0,-2.638000064E-2,1.277319938E-1,2.977530062E-1,3.250664846E-1
1.265029194E0,-2.638000064E-2,1.277319938E-1,2.977530062E-1,3.250664846E-1
1.270027811E0,-3.181799874E-2,1.285669953E-1,3.055199981E-1,3.329929827E-1
1.275026426E0,-3.181799874E-2,1.285669953E-1,3.055199981E-1,3.329929827E-1
1.280025357E0,-3.181799874E-2,1.285669953E-1,3.055199981E-1,3.329929827E-1
1.285024282E0,-3.181799874E-2,1.285669953E-1,3.055199981E-1,3.329929827E-1
1.290022434E0,-4.518099874E-2,1.226650029E-1,3.087329865E-1,3.352671808E-1
1.295020589E0,-4.518099874E-2,1.226650029E-1,3.087329865E-1,3.352671808E-1
1.300019325E0,-4.518099874E-2,1.226650029E-1,3.087329865E-1,3.352671808E-1
1.305018054E0,-4.518099874E-2,1.226650029E-1,3.087329865E-1,3.352671808E-1
1.310017631E0,-5.977499858E-2,1.167360023E-1,3.073309958E-1,3.341447077E-1
1.315017208E0,-5.977499858E-2,1.167360023E-1,3.073309958E-1,3.341447077E-1
1.320016741E0,-5.977499858E-2,1.167360023E-1,3.073309958E-1,3.341447077E-1
1.325016280E0,-5.977499858E-2,1.167360023E-1,3.073309958E-1,3.341447077E-1
1.330015501E0,-7.393000275E-2,1.159349978E-1,3.082140088E-1,3.374943618E-1
1.335014694E0,-7.393000275E-2,1.159349978E-1,3.082140088E-1,3.374943618E-1
1.340013502E0,-7.393000275E-2,1.159349978E-1,3.082140088E-1,3.374943618E-1
1.345012309E0,-7.393000275E-2,1.159349978E-1,3.082140088E-1,3.374943618E-1
1.350011964E0,-8.690600097E-2,1.142219976E-1,3.101400137E-1,3.417398804E-1
1.355011617E0,-8.690600097E-2,1.142219976E-1,3.101400137E-1,3.417398804E-1
1.360009962E0,-8.690600097E-2,1.142219976E-1,3.101400137E-1,3.417398804E-1
1.365008271E0,-8.690600097E-2,1.142219976E-1,3.101400137E-1,3.417398804E-1
1.370007502E0,-9.476400167E-2,1.136950031E-1,3.147169948E-1,3.477837784E-1
1.375006733E0,-9.476400167E-2,1.136950031E-1,3.147169948E-1,3.477837784E-1
1.380006159E0,-9.476400167E-2,1.136950031E-1,3.147169948E-1,3.477837784E-1
1.385005544E0,-9.476400167E-2,1.136950031E-1,3.147169948E-1,3.477837784E-1
1.390003890E0,-9.414800256E-2,1.100030020E-1,3.231750131E-1,3.541279372E-1
1.395002237E0,-9.414800256E-2,1.100030020E-1,3.231750131E-1,3.541279372E-1
1.400000650E0,-9.414800256E-2,1.100030020E-1,3.231750131E-1,3.541279372E-1
1.404999073E0,-9.414800256E-2,1.100030020E-1,3.231750131E-1,3.541279372E-1
1.409997842E0,-8.427300304E-2,1.117879972E-1,3.336380124E-1,3.618187650E-1
1.414996611E0,-8.427300304E-2,1.117879972E-1,3.336380124E-1,3.618187650E-1
1.419995722E0,-8.427300304E-2,1.117879972E-1,3.336380124E-1,3.618187650E-1
1.424994837E0,-8.427300304E-2,1.117879972E-1,3.336380124E-1,3.618187650E-1
1.429993298E0,-6.949000061E-2,1.203979999E-1,3.304339945E-1,3.584845370E-1
1.434991761E0,-6.949000061E-2,1.203979999E-1,3.304339945E-1,3.584845370E-1
1.439991401E0,-6.949000061E-2,1.203979999E-1,3.304339945E-1,3.584845370E-1
1.444991054E0,-6.949000061E-2,1.203979999E-1,3.304339945E-1,3.584845370E-1
1.449989707E0,-5.944399908E-2,1.356920004E-1,3.100599945E-1,3.436322281E-1
1.454988362E0,-5.944399908E-2,1.356920004E-1,3.100599945E-1,3.436322281E-1
1.459986940E0,-5.944399908E-2,1.356920004E-1,3.100599945E-1,3.436322281E-1
1.464985515E0,-5.944399908E-2,1.356920004E-1,3.100599945E-1,3.436322281E-1
1.469984747E0,-5.751100183E-2,1.509180069E-1,2.816739976E-1,3.246906236E-1
1.474983978E0,-5.751100183E-2,1.509180069E-1,2.816739976E-1,3.246906236E-1
1.479982101E0,-5.751100183E-2,1.509180069E-1,2.816739976E-1,3.246906236E-1
1.484980256E0,-5.751100183E-2,1.509180069E-1,2.816739976E-1,3.246906236E-1
1.489978103E0,-5.905799940E-2,1.612530053E-1,2.562069893E-1,3.084354071E-1
1.494975948E0,-5.905799940E-2,1.612530053E-1,2.562069893E-1,3.084354071E-1
1.499974560E0,-5.905799940E-2,1.612530053E-1,2.562069893E-1,3.084354071E-1
1.504973175E0,-5.905799940E-2,1.612530053E-1,2.562069893E-1,3.084354071E-1
1.509971981E0,-5.485599861E-2,1.657759994E-1,2.451879978E-1,3.010116557E-1
1.514970790E0,-5.485599861E-2,1.657759994E-1,2.451879978E-1,3.010116557E-1
1.519969087E0,-5.485599861E-2,1.657759994E-1,2.451879978E-1,3.010116557E-1
1.524967396E0,-5.485599861E-2,1.657759994E-1,2.451879978E-1,3.010116557E-1
1.529966165E0,-5.442300066E-2,1.643700004E-1,2.383279949E-1,2.945837626E-1
1.534964934E0,-5.442300066E-2,1.643700004E-1,2.383279949E-1,2.945837626E-1
1.539963702E0,-5.442300066E-2,1.643700004E-1,2.383279949E-1,2.945837626E-1
1.544962473E0,-5.442300066E-2,1.643700004E-1,2.383279949E-1,2.945837626E-1
1.549960789E0,-6.103999913E-2,1.581850052E-1,2.342319936E-1,2.891591329E-1
1.554959098E0,-6.103999913E-2,1.581850052E-1,2.342319936E-1,2.891591329E-1
1.559956905E0,-6.103999913E-2,1.581850052E-1,2.342319936E-1,2.891591329E-1
1.564954712E0,-6.103999913E-2,1.581850052E-1,2.342319936E-1,2.891591329E-1
1.569953675E0,-6.988699734E-2,1.500640064E-1,2.300429940E-1,2.834134392E-1
1.574952636E0,-6.988699734E-2,1.500640064E-1,2.300429940E-1,2.834134392E-1
1.579951554E0,-6.988699734E-2,1.500640064E-1,2.300429940E-1,2.834134392E-1
1.584950477E0,-6.988699734E-2,1.500640064E-1,2.300429940E-1,2.834134392E-1
1.589948169E0,-8.744700253E-2,1.494199932E-1,2.263969928E-1,2.850068612E-1
1.594945862E0,-8.744700253E-2,1.494199932E-1,2.263969928E-1,2.850068612E-1
1.599944598E0,-8.744700253E-2,1.494199932E-1,2.263969928E-1,2.850068612E-1
1.604943329E0,-8.744700253E-2,1.494199932E-1,2.263969928E-1,2.850068612E-1
1.609941982E0,-9.890100360E-2,1.513559967E-1,2.215380073E-1,2.859530292E-1
1.614940637E0,-9.890100360E-2,1.513559967E-1,2.215380073E-1,2.859530292E-1
1.619939814E0,-9.890100360E-2,1.513559967E-1,2.215380073E-1,2.859530292E-1
1.624939005E0,-9.890100360E-2,1.513559967E-1,2.215380073E-1,2.859530292E-1
1.629937813E0,-1.021569967E-1,1.548790038E-1,2.252479941E-1,2.918222346E-1
1.634936622E0,-1.021569967E-1,1.548790038E-1,2.252479941E-1,2.918222346E-1
1.639934791E0,-1.021569967E-1,1.548790038E-1,2.252479941E-1,2.918222346E-1
1.644932944E0,-1.021569967E-1,1.548790038E-1,2.252479941E-1,2.918222346E-1
1.649932176E0,-1.000640020E-1,1.547870040E-1,2.339760065E-1,2.978533074E-1
1.654931407E0,-1.000640020E-1,1.547870040E-1,2.339760065E-1,2.978533074E-1
1.659930607E0,-1.000640020E-1,1.547870040E-1,2.339760065E-1,2.978533074E-1
1.664929800E0,-1.000640020E-1,1.547870040E-1,2.339760065E-1,2.978533074E-1
1.669928147E0,-9.588599950E-2,1.508769989E-1,2.398959994E-1,2.991790170E-1
1.674926492E0,-9.588599950E-2,1.508769989E-1,2.398959994E-1,2.991790170E-1
1.679925387E0,-9.588599950E-2,1.508769989E-1,2.398959994E-1,2.991790170E-1
1.684924272E0,-9.588599950E-2,1.508769989E-1,2.398959994E-1,2.991790170E-1
1.689922309E0,-9.610799700E-2,1.501650065E-1,2.383439988E-1,2.976476743E-1
1.694920348E0,-9.610799700E-2,1.501650065E-1,2.383439988E-1,2.976476743E-1
1.699918329E0,-9.610799700E-2,1.501650065E-1,2.383439988E-1,2.976476743E-1
1.704916290E0,-9.610799700E-2,1.501650065E-1,2.383439988E-1,2.976476743E-1
1.709914445E0,-9.449099749E-2,1.521430016E-1,2.273930013E-1,2.894540008E-1
1.714912598E0,-9.449099749E-2,1.521430016E-1,2.273930013E-1,2.894540008E-1
1.719910472E0,-9.449099749E-2,1.521430016E-1,2.273930013E-1,2.894540008E-1
1.724908357E0,-9.449099749E-2,1.521430016E-1,2.273930013E-1,2.894540008E-1
1.729906628E0,-9.110300243E-2,1.575939953E-1,2.156189978E-1,2.821828780E-1
1.734904897E0,-9.110300243E-2,1.575939953E-1,2.156189978E-1,2.821828780E-1
1.739904588E0,-9.110300243E-2,1.575939953E-1,2.156189978E-1,2.821828780E-1
1.744904281E0,-9.110300243E-2,1.575939953E-1,2.156189978E-1,2.821828780E-1
1.749903511E0,-8.501499891E-2,1.588950008E-1,2.123820037E-1,2.785341753E-1
1.754902742E0,-8.501499891E-2,1.588950008E-1,2.123820037E-1,2.785341753E-1
1.759901363E0,-8.501499891E-2,1.588950008E-1,2.123820037E-1,2.785341753E-1
1.764899978E0,-8.501499891E-2,1.588950008E-1,2.123820037E-1,2.785341753E-1
1.769899363E0,-7.845000178E-2,1.594659984E-1,2.158730030E-1,2.796157379E-1
1.774898748E0,-7.845000178E-2,1.594659984E-1,2.158730030E-1,2.796157379E-1
1.779897410E0,-7.845000178E-2,1.594659984E-1,2.158730030E-1,2.796157379E-1
1.784896065E0,-7.845000178E-2,1.594659984E-1,2.158730030E-1,2.796157379E-1
1.789894950E0,-7.943800092E-2,1.587270051E-1,2.231760025E-1,2.851529173E-1
1.794893835E0,-7.943800092E-2,1.587270051E-1,2.231760025E-1,2.851529173E-1
1.799892473E0,-7.943800092E-2,1.587270051E-1,2.231760025E-1,2.851529173E-1
1.804891128E0,-7.943800092E-2,1.587270051E-1,2.231760025E-1,2.851529173E-1
1.809889435E0,-9.087300301E-2,1.580089927E-1,2.269639969E-1,2.910968916E-1
1.814887742E0,-9.087300301E-2,1.580089927E-1,2.269639969E-1,2.910968916E-1
1.819887089E0,-9.087300301E-2,1.580089927E-1,2.269639969E-1,2.910968916E-1
1.824886434E0,-9.087300301E-2,1.580089927E-1,2.269639969E-1,2.910968916E-1
1.829886319E0,-1.038910002E-1,1.600659937E-1,2.291129977E-1,2.981731509E-1
1.834886204E0,-1.038910002E-1,1.600659937E-1,2.291129977E-1,2.981731509E-1
1.839884934E0,-1.038910002E-1,1.600659937E-1,2.291129977E-1,2.981731509E-1
1.844883665E0,-1.038910002E-1,1.600659937E-1,2.291129977E-1,2.981731509E-1
1.849882281E0,-1.223639995E-1,1.642629951E-1,2.307949960E-1,3.085799898E-1
1.854880896E0,-1.223639995E-1,1.642629951E-1,2.307949960E-1,3.085799898E-1
1.859879714E0,-1.223639995E-1,1.642629951E-1,2.307949960E-1,3.085799898E-1
1.864878521E0,-1.223639995E-1,1.642629951E-1,2.307949960E-1,3.085799898E-1
1.869878368E0,-1.356720030E-1,1.583530009E-1,2.279929966E-1,3.089714741E-1
1.874878215E0,-1.356720030E-1,1.583530009E-1,2.279929966E-1,3.089714741E-1
1.879876169E0,-1.356720030E-1,1.583530009E-1,2.279929966E-1,3.089714741E-1
1.884874132E0,-1.356720030E-1,1.583530009E-1,2.279929966E-1,3.089714741E-1
1.889873196E0,-1.363079995E-1,1.521099955E-1,2.322659940E-1,3.092972897E-1
1.894872271E0,-1.363079995E-1,1.521099955E-1,2.322659940E-1,3.092972897E-1
1.899871496E0,-1.363079995E-1,1.521099955E-1,2.322659940E-1,3.092972897E-1
1.904870727E0,-1.363079995E-1,1.521099955E-1,2.322659940E-1,3.092972897E-1
1.909869073E0,-1.324259937E-1,1.523189992E-1,2.400529981E-1,3.136290216E-1
1.914867420E0,-1.324259937E-1,1.523189992E-1,2.400529981E-1,3.136290216E-1
1.919865843E0,-1.324259937E-1,1.523189992E-1,2.400529981E-1,3.136290216E-1
1.924864266E0,-1.324259937E-1,1.523189992E-1,2.400529981E-1,3.136290216E-1
1.929863497E0,-1.279969960E-1,1.635999978E-1,2.417470068E-1,3.187315572E-1
1.934862728E0,-1.279969960E-1,1.635999978E-1,2.417470068E-1,3.187315572E-1
1.939862438E0,-1.279969960E-1,1.635999978E-1,2.417470068E-1,3.187315572E-1
1.944862169E0,-1.279969960E-1,1.635999978E-1,2.417470068E-1,3.187315572E-1
1.949860476E0,-1.282330006E-1,1.768459976E-1,2.423990071E-1,3.263058197E-1
1.954858785E0,-1.282330006E-1,1.768459976E-1,2.423990071E-1,3.263058197E-1
1.959856737E0,-1.282330006E-1,1.768459976E-1,2.423990071E-1,3.263058197E-1
1.964854698E0,-1.282330006E-1,1.768459976E-1,2.423990071E-1,3.263058197E-1
1.969852391E0,-1.362009943E-1,1.904139966E-1,2.399909943E-1,3.352668762E-1
1.974850084E0,-1.362009943E-1,1.904139966E-1,2.399909943E-1,3.352668762E-1
1.979847939E0,-1.362009943E-1,1.904139966E-1,2.399909943E-1,3.352668762E-1
1.984845824E0,-1.362009943E-1,1.904139966E-1,2.399909943E-1,3.352668762E-1
1.989844901E0,-1.377110034E-1,1.973129958E-1,2.410189956E-1,3.405684880E-1
1.994843978E0,-1.377110034E-1,1.973129958E-1,2.410189956E-1,3.405684880E-1
1.999843015E0,-1.377110034E-1,1.973129958E-1,2.410189956E-1,3.405684880E-1
2.004842054E0,-1.377110034E-1,1.973129958E-1,2.410189956E-1,3.405684880E-1
2.009840824E0,-1.283160001E-1,1.950650066E-1,2.471610010E-1,3.400057545E-1
2.014839593E0,-1.283160001E-1,1.950650066E-1,2.471610010E-1,3.400057545E-1
2.019838978E0,-1.283160001E-1,1.950650066E-1,2.471610010E-1,3.400057545E-1
2.024838363E0,-1.283160001E-1,1.950650066E-1,2.471610010E-1,3.400057545E-1
2.029837785E0,-1.194529980E-1,1.879210025E-1,2.465510070E-1,3.322208919E-1
2.034837208E0,-1.194529980E-1,1.879210025E-1,2.465510070E-1,3.322208919E-1
2.039836751E0,-1.194529980E-1,1.879210025E-1,2.465510070E-1,3.322208919E-1
2.044836290E0,-1.194529980E-1,1.879210025E-1,2.465510070E-1,3.322208919E-1
2.049834745E0,-1.209419966E-1,1.780389994E-1,2.407419980E-1,3.229265573E-1
2.054833208E0,-1.209419966E-1,1.780389994E-1,2.407419980E-1,3.229265573E-1
2.059831631E0,-1.209419966E-1,1.780389994E-1,2.407419980E-1,3.229265573E-1
2.064830054E0,-1.209419966E-1,1.780389994E-1,2.407419980E-1,3.229265573E-1
2.069828968E0,-1.235200018E-1,1.695339978E-1,2.264730036E-1,3.086891456E-1
2.074827891E0,-1.235200018E-1,1.695339978E-1,2.264730036E-1,3.086891456E-1
2.079826072E0,-1.235200018E-1,1.695339978E-1,2.264730036E-1,3.086891456E-1
2.084824227E0,-1.235200018E-1,1.695339978E-1,2.264730036E-1,3.086891456E-1
2.089823651E0,-1.225140020E-1,1.633969992E-1,2.077659965E-1,2.913330900E-1
2.094823074E0,-1.225140020E-1,1.633969992E-1,2.077659965E-1,2.913330900E-1
2.099822145E0,-1.225140020E-1,1.633969992E-1,2.077659965E-1,2.913330900E-1
2.104821222E0,-1.225140020E-1,1.633969992E-1,2.077659965E-1,2.913330900E-1
2.109819838E0,-1.183599979E-1,1.615770012E-1,1.990910023E-1,2.824065219E-1
2.114818453E0,-1.183599979E-1,1.615770012E-1,1.990910023E-1,2.824065219E-1
2.119817342E0,-1.183599979E-1,1.615770012E-1,1.990910023E-1,2.824065219E-1
2.124816227E0,-1.183599979E-1,1.615770012E-1,1.990910023E-1,2.824065219E-1
2.129815342E0,-1.129970029E-1,1.608629972E-1,1.998620033E-1,2.803391640E-1
2.134814457E0,-1.129970029E-1,1.608629972E-1,1.998620033E-1,2.803391640E-1
2.139813019E0,-1.129970029E-1,1.608629972E-1,1.998620033E-1,2.803391640E-1
2.144811598E0,-1.129970029E-1,1.608629972E-1,1.998620033E-1,2.803391640E-1
2.149809751E0,-1.114739999E-1,1.611119956E-1,2.036579996E-1,2.825953089E-1
2.154807906E0,-1.114739999E-1,1.611119956E-1,2.036579996E-1,2.825953089E-1
2.159805641E0,-1.114739999E-1,1.611119956E-1,2.036579996E-1,2.825953089E-1
2.164803372E0,-1.114739999E-1,1.611119956E-1,2.036579996E-1,2.825953089E-1
2.169801526E0,-1.099900007E-1,1.634110063E-1,2.121540010E-1,2.895000473E-1
2.174799679E0,-1.099900007E-1,1.634110063E-1,2.121540010E-1,2.895000473E-1
2.179798771E0,-1.099900007E-1,1.634110063E-1,2.121540010E-1,2.895000473E-1
2.184797848E0,-1.099900007E-1,1.634110063E-1,2.121540010E-1,2.895000473E-1
2.189796457E0,-1.147859991E-1,1.689790040E-1,2.223830074E-1,3.019667720E-1
2.194795074E0,-1.147859991E-1,1.689790040E-1,2.223830074E-1,3.019667720E-1
2.199793689E0,-1.147859991E-1,1.689790040E-1,2.223830074E-1,3.019667720E-1
2.204792304E0,-1.147859991E-1,1.689790040E-1,2.223830074E-1,3.019667720E-1
2.209791386E0,-1.231840029E-1,1.740979999E-1,2.283039987E-1,3.124213949E-1
2.214790463E0,-1.231840029E-1,1.740979999E-1,2.283039987E-1,3.124213949E-1
2.219788597E0,-1.231840029E-1,1.740979999E-1,2.283039987E-1,3.124213949E-1
2.224786714E0,-1.231840029E-1,1.740979999E-1,2.283039987E-1,3.124213949E-1
2.229785830E0,-1.221159995E-1,1.748600006E-1,2.294439971E-1,3.132616877E-1
2.234784945E0,-1.221159995E-1,1.748600006E-1,2.294439971E-1,3.132616877E-1
2.239783569E0,-1.221159995E-1,1.748600006E-1,2.294439971E-1,3.132616877E-1
2.244782186E0,-1.221159995E-1,1.748600006E-1,2.294439971E-1,3.132616877E-1
2.249780608E0,-1.217269972E-1,1.770520061E-1,2.236620039E-1,3.101444288E-1
2.254779031E0,-1.217269972E-1,1.770520061E-1,2.236620039E-1,3.101444288E-1
2.259778023E0,-1.217269972E-1,1.770520061E-1,2.236620039E-1,3.101444288E-1
2.264776984E0,-1.217269972E-1,1.770520061E-1,2.236620039E-1,3.101444288E-1
2.269775713E0,-1.256400049E-1,1.814959943E-1,2.135210037E-1,3.071114225E-1
2.274774444E0,-1.256400049E-1,1.814959943E-1,2.135210037E-1,3.071114225E-1
2.279773532E0,-1.256400049E-1,1.814959943E-1,2.135210037E-1,3.071114225E-1
2.284772647E0,-1.256400049E-1,1.814959943E-1,2.135210037E-1,3.071114225E-1
2.289771261E0,-1.247730032E-1,1.798660010E-1,2.029010057E-1,2.984776353E-1
2.294769878E0,-1.247730032E-1,1.798660010E-1,2.029010057E-1,2.984776353E-1
2.299769104E0,-1.247730032E-1,1.798660010E-1,2.029010057E-1,2.984776353E-1
2.304768335E0,-1.247730032E-1,1.798660010E-1,2.029010057E-1,2.984776353E-1
2.309768026E0,-1.201729998E-1,1.736180037E-1,1.956679970E-1,2.878727603E-1
2.314767719E0,-1.201729998E-1,1.736180037E-1,1.956679970E-1,2.878727603E-1
2.319766443E0,-1.201729998E-1,1.736180037E-1,1.956679970E-1,2.878727603E-1
2.324765176E0,-1.201729998E-1,1.736180037E-1,1.956679970E-1,2.878727603E-1
2.329763830E0,-1.187990010E-1,1.737029999E-1,1.868889928E-1,2.814488061E-1
2.334762483E0,-1.187990010E-1,1.737029999E-1,1.868889928E-1,2.814488061E-1
2.339761676E0,-1.187990010E-1,1.737029999E-1,1.868889928E-1,2.814488061E-1
2.344760867E0,-1.187990010E-1,1.737029999E-1,1.868889928E-1,2.814488061E-1
2.349759944E0,-1.223080009E-1,1.765930057E-1,1.737760007E-1,2.763013485E-1
2.354759021E0,-1.223080009E-1,1.765930057E-1,1.737760007E-1,2.763013485E-1
2.359757488E0,-1.223080009E-1,1.765930057E-1,1.737760007E-1,2.763013485E-1
2.364755949E0,-1.223080009E-1,1.765930057E-1,1.737760007E-1,2.763013485E-1
2.369754103E0,-1.253349930E-1,1.797360033E-1,1.688710004E-1,2.766429217E-1
2.374752258E0,-1.253349930E-1,1.797360033E-1,1.688710004E-1,2.766429217E-1
2.379751307E0,-1.253349930E-1,1.797360033E-1,1.688710004E-1,2.766429217E-1
2.384750382E0,-1.253349930E-1,1.797360033E-1,1.688710004E-1,2.766429217E-1
2.389747933E0,-1.263660043E-1,1.784950048E-1,1.780740023E-1,2.820269208E-1
2.394745474E0,-1.263660043E-1,1.784950048E-1,1.780740023E-1,2.820269208E-1
2.399744277E0,-1.263660043E-1,1.784950048E-1,1.780740023E-1,2.820269208E-1
2.404743084E0,-1.263660043E-1,1.784950048E-1,1.780740023E-1,2.820269208E-1
2.409741814E0,-1.224249974E-1,1.683750004E-1,1.932000071E-1,2.840145480E-1
2.414740545E0,-1.224249974E-1,1.683750004E-1,1.932000071E-1,2.840145480E-1
2.419739801E0,-1.224249974E-1,1.683750004E-1,1.932000071E-1,2.840145480E-1
2.424739070E0,-1.224249974E-1,1.683750004E-1,1.932000071E-1,2.840145480E-1
2.429737530E0,-1.248330027E-1,1.530009955E-1,2.075199932E-1,2.864561585E-1
2.434735993E0,-1.248330027E-1,1.530009955E-1,2.075199932E-1,2.864561585E-1
2.439734738E0,-1.248330027E-1,1.530009955E-1,2.075199932E-1,2.864561585E-1
2.444733469E0,-1.248330027E-1,1.530009955E-1,2.075199932E-1,2.864561585E-1
2.449732122E0,-1.237879992E-1,1.418330073E-1,2.183060050E-1,2.882665130E-1
2.454730777E0,-1.237879992E-1,1.418330073E-1,2.183060050E-1,2.882665130E-1
2.459728599E0,-1.237879992E-1,1.418330073E-1,2.183060050E-1,2.882665130E-1
2.464726406E0,-1.237879992E-1,1.418330073E-1,2.183060050E-1,2.882665130E-1
2.469724753E0,-1.208219975E-1,1.356379986E-1,2.315820009E-1,2.943226883E-1
2.474723098E0,-1.208219975E-1,1.356379986E-1,2.315820009E-1,2.943226883E-1
2.479721391E0,-1.208219975E-1,1.356379986E-1,2.315820009E-1,2.943226883E-1
2.484719662E0,-1.208219975E-1,1.356379986E-1,2.315820009E-1,2.943226883E-1
2.489718162E0,-1.143099964E-1,1.346780062E-1,2.451699972E-1,3.021808534E-1
2.494716661E0,-1.143099964E-1,1.346780062E-1,2.451699972E-1,3.021808534E-1
2.499717239E0,-1.143099964E-1,1.346780062E-1,2.451699972E-1,3.021808534E-1
2.504717816E0,-1.143099964E-1,1.346780062E-1,2.451699972E-1,3.021808534E-1
2.509716446E0,-1.099760011E-1,1.405930072E-1,2.562269866E-1,3.122713294E-1
2.514715101E0,-1.099760011E-1,1.405930072E-1,2.562269866E-1,3.122713294E-1
2.519713679E0,-1.099760011E-1,1.405930072E-1,2.562269866E-1,3.122713294E-1
2.524712256E0,-1.099760011E-1,1.405930072E-1,2.562269866E-1,3.122713294E-1
2.529711222E0,-1.079469994E-1,1.474220008E-1,2.646830082E-1,3.216253967E-1
2.534710183E0,-1.079469994E-1,1.474220008E-1,2.646830082E-1,3.216253967E-1
2.539708885E0,-1.079469994E-1,1.474220008E-1,2.646830082E-1,3.216253967E-1
2.544707616E0,-1.079469994E-1,1.474220008E-1,2.646830082E-1,3.216253967E-1
2.549705616E0,-1.151029989E-1,1.489509940E-1,2.648589909E-1,3.249390467E-1
2.554703617E0,-1.151029989E-1,1.489509940E-1,2.648589909E-1,3.249390467E-1
2.559701516E0,-1.151029989E-1,1.489509940E-1,2.648589909E-1,3.249390467E-1
2.564699401E0,-1.151029989E-1,1.489509940E-1,2.648589909E-1,3.249390467E-1
2.569698171E0,-1.284790039E-1,1.455190033E-1,2.616730034E-1,3.258149712E-1
2.574696940E0,-1.284790039E-1,1.455190033E-1,2.616730034E-1,3.258149712E-1
2.579696752E0,-1.284790039E-1,1.455190033E-1,2.616730034E-1,3.258149712E-1
2.584696559E0,-1.284790039E-1,1.455190033E-1,2.616730034E-1,3.258149712E-1
2.589695481E0,-1.428750008E-1,1.370380074E-1,2.495030016E-1,3.185034209E-1
2.594694406E0,-1.428750008E-1,1.370380074E-1,2.495030016E-1,3.185034209E-1
2.599693637E0,-1.428750008E-1,1.370380074E-1,2.495030016E-1,3.185034209E-1
2.604692868E0,-1.428750008E-1,1.370380074E-1,2.495030016E-1,3.185034209E-1
2.609691520E0,-1.505240053E-1,1.290899962E-1,2.342009991E-1,3.068742597E-1
2.614690175E0,-1.505240053E-1,1.290899962E-1,2.342009991E-1,3.068742597E-1
2.619690037E0,-1.505240053E-1,1.290899962E-1,2.342009991E-1,3.068742597E-1
2.624689882E0,-1.505240053E-1,1.290899962E-1,2.342009991E-1,3.068742597E-1
2.629689106E0,-1.526650041E-1,1.308159977E-1,2.123239934E-1,2.924053812E-1
2.634688337E0,-1.526650041E-1,1.308159977E-1,2.123239934E-1,2.924053812E-1
2.639686636E0,-1.526650041E-1,1.308159977E-1,2.123239934E-1,2.924053812E-1
2.644684905E0,-1.526650041E-1,1.308159977E-1,2.123239934E-1,2.924053812E-1
2.649683560E0,-1.452430040E-1,1.369960010E-1,1.897719949E-1,2.754575186E-1
2.654682213E0,-1.452430040E-1,1.369960010E-1,1.897719949E-1,2.754575186E-1
2.659680621E0,-1.452430040E-1,1.369960010E-1,1.897719949E-1,2.754575186E-1
2.664679044E0,-1.452430040E-1,1.369960010E-1,1.897719949E-1,2.754575186E-1
2.669679507E0,-1.372829974E-1,1.488460004E-1,1.856880039E-1,2.747394912E-1
2.674679968E0,-1.372829974E-1,1.488460004E-1,1.856880039E-1,2.747394912E-1
2.679678735E0,-1.372829974E-1,1.488460004E-1,1.856880039E-1,2.747394912E-1
2.684677506E0,-1.372829974E-1,1.488460004E-1,1.856880039E-1,2.747394912E-1
2.689676891E0,-1.321289986E-1,1.605660021E-1,1.984689981E-1,2.874533989E-1
2.694676276E0,-1.321289986E-1,1.605660021E-1,1.984689981E-1,2.874533989E-1
2.699674923E0,-1.321289986E-1,1.605660021E-1,1.984689981E-1,2.874533989E-1
2.704673578E0,-1.321289986E-1,1.605660021E-1,1.984689981E-1,2.874533989E-1
2.709671886E0,-1.311910003E-1,1.659590006E-1,2.207330018E-1,3.057393114E-1
2.714670193E0,-1.311910003E-1,1.659590006E-1,2.207330018E-1,3.057393114E-1
2.719668347E0,-1.311910003E-1,1.659590006E-1,2.207330018E-1,3.057393114E-1
2.724666500E0,-1.311910003E-1,1.659590006E-1,2.207330018E-1,3.057393114E-1
2.729665579E0,-1.323029995E-1,1.732009947E-1,2.408699989E-1,3.248399985E-1
2.734664654E0,-1.323029995E-1,1.732009947E-1,2.408699989E-1,3.248399985E-1
2.739663101E0,-1.323029995E-1,1.732009947E-1,2.408699989E-1,3.248399985E-1
2.744661564E0,-1.323029995E-1,1.732009947E-1,2.408699989E-1,3.248399985E-1
2.749660127E0,-1.389120072E-1,1.738930047E-1,2.483540028E-1,3.334891805E-1
2.754658704E0,-1.389120072E-1,1.738930047E-1,2.483540028E-1,3.334891805E-1
2.759657472E0,-1.389120072E-1,1.738930047E-1,2.483540028E-1,3.334891805E-1
2.764656243E0,-1.389120072E-1,1.738930047E-1,2.483540028E-1,3.334891805E-1
2.769654890E0,-1.477479935E-1,1.708119959E-1,2.497950047E-1,3.367547355E-1
2.774653545E0,-1.477479935E-1,1.708119959E-1,2.497950047E-1,3.367547355E-1
2.779651665E0,-1.477479935E-1,1.708119959E-1,2.497950047E-1,3.367547355E-1
2.784649780E0,-1.477479935E-1,1.708119959E-1,2.497950047E-1,3.367547355E-1
2.789648896E0,-1.535169929E-1,1.619500071E-1,2.466969937E-1,3.326479800E-1
2.794648011E0,-1.535169929E-1,1.619500071E-1,2.466969937E-1,3.326479800E-1
2.799647227E0,-1.535169929E-1,1.619500071E-1,2.466969937E-1,3.326479800E-1
2.804646460E0,-1.535169929E-1,1.619500071E-1,2.466969937E-1,3.326479800E-1
2.809645382E0,-1.533360034E-1,1.548209935E-1,2.381179929E-1,3.227718211E-1
2.814644305E0,-1.533360034E-1,1.548209935E-1,2.381179929E-1,3.227718211E-1
2.819642767E0,-1.533360034E-1,1.548209935E-1,2.381179929E-1,3.227718211E-1
2.824641228E0,-1.533360034E-1,1.548209935E-1,2.381179929E-1,3.227718211E-1
2.829639690E0,-1.452630013E-1,1.509740055E-1,2.307969928E-1,3.117077826E-1
2.834638151E0,-1.452630013E-1,1.509740055E-1,2.307969928E-1,3.117077826E-1
2.839637357E0,-1.452630013E-1,1.509740055E-1,2.307969928E-1,3.117077826E-1
2.844636550E0,-1.452630013E-1,1.509740055E-1,2.307969928E-1,3.117077826E-1
2.849636088E0,-1.377889961E-1,1.544339955E-1,2.212499976E-1,3.029640702E-1
2.854635627E0,-1.377889961E-1,1.544339955E-1,2.212499976E-1,3.029640702E-1
2.859634548E0,-1.377889961E-1,1.544339955E-1,2.212499976E-1,3.029640702E-1
2.864633473E0,-1.377889961E-1,1.544339955E-1,2.212499976E-1,3.029640702E-1
2.869632089E0,-1.342999935E-1,1.644559950E-1,2.144269943E-1,3.017634809E-1
2.874630704E0,-1.342999935E-1,1.644559950E-1,2.144269943E-1,3.017634809E-1
2.879629473E0,-1.342999935E-1,1.644559950E-1,2.144269943E-1,3.017634809E-1
2.884628242E0,-1.342999935E-1,1.644559950E-1,2.144269943E-1,3.017634809E-1
2.889627625E0,-1.352639943E-1,1.709299982E-1,2.175550014E-1,3.079668668E-1
2.894627010E0,-1.352639943E-1,1.709299982E-1,2.175550014E-1,3.079668668E-1
2.899625920E0,-1.352639943E-1,1.709299982E-1,2.175550014E-1,3.079668668E-1
2.904624845E0,-1.352639943E-1,1.709299982E-1,2.175550014E-1,3.079668668E-1
2.909622998E0,-1.391810030E-1,1.746319979E-1,2.249419987E-1,3.169646496E-1
2.914621151E0,-1.391810030E-1,1.746319979E-1,2.249419987E-1,3.169646496E-1
2.919620230E0,-1.391810030E-1,1.746319979E-1,2.249419987E-1,3.169646496E-1
2.924619305E0,-1.391810030E-1,1.746319979E-1,2.249419987E-1,3.169646496E-1
2.929619593E0,-1.401789933E-1,1.770009995E-1,2.308160067E-1,3.228862538E-1
2.934619902E0,-1.401789933E-1,1.770009995E-1,2.308160067E-1,3.228862538E-1
2.939618092E0,-1.401789933E-1,1.770009995E-1,2.308160067E-1,3.228862538E-1
2.944616285E0,-1.401789933E-1,1.770009995E-1,2.308160067E-1,3.228862538E-1
2.949614580E0,-1.378519982E-1,1.757619977E-1,2.360720038E-1,3.250006835E-1
2.954612887E0,-1.378519982E-1,1.757619977E-1,2.360720038E-1,3.250006835E-1
2.959611670E0,-1.378519982E-1,1.757619977E-1,2.360720038E-1,3.250006835E-1
2.964610439E0,-1.378519982E-1,1.757619977E-1,2.360720038E-1,3.250006835E-1
2.969609516E0,-1.286419928E-1,1.740159988E-1,2.399030030E-1,3.230847892E-1
2.974608593E0,-1.286419928E-1,1.740159988E-1,2.399030030E-1,3.230847892E-1
2.979607795E0,-1.286419928E-1,1.740159988E-1,2.399030030E-1,3.230847892E-1
2.984606988E0,-1.286419928E-1,1.740159988E-1,2.399030030E-1,3.230847892E-1
2.989605896E0,-1.255899966E-1,1.743669957E-1,2.313600034E-1,3.157596358E-1
2.994604819E0,-1.255899966E-1,1.743669957E-1,2.313600034E-1,3.157596358E-1
2.999603627E0,-1.255899966E-1,1.743669957E-1,2.313600034E-1,3.157596358E-1
3.004602434E0,-1.255899966E-1,1.743669957E-1,2.313600034E-1,3.157596358E-1
3.009600126E0,-1.223459989E-1,1.820300072E-1,2.199700028E-1,3.106288285E-1
3.014597819E0,-1.223459989E-1,1.820300072E-1,2.199700028E-1,3.106288285E-1
3.019596734E0,-1.223459989E-1,1.820300072E-1,2.199700028E-1,3.106288285E-1
3.024595657E0,-1.223459989E-1,1.820300072E-1,2.199700028E-1,3.106288285E-1
3.029594233E0,-1.183929965E-1,1.970079988E-1,2.107679993E-1,3.118528543E-1
3.034592810E0,-1.183929965E-1,1.970079988E-1,2.107679993E-1,3.118528543E-1
3.039591758E0,-1.183929965E-1,1.970079988E-1,2.107679993E-1,3.118528543E-1
3.044590681E0,-1.183929965E-1,1.970079988E-1,2.107679993E-1,3.118528543E-1
3.049589295E0,-1.175170019E-1,2.096479982E-1,2.095219940E-1,3.188447818E-1
3.054587912E0,-1.175170019E-1,2.096479982E-1,2.095219940E-1,3.188447818E-1
3.059586527E0,-1.175170019E-1,2.096479982E-1,2.095219940E-1,3.188447818E-1
3.064585142E0,-1.175170019E-1,2.096479982E-1,2.095219940E-1,3.188447818E-1
3.069583142E0,-1.132500023E-1,2.140969932E-1,2.165099978E-1,3.248686884E-1
3.074581143E0,-1.132500023E-1,2.140969932E-1,2.165099978E-1,3.248686884E-1
3.079580849E0,-1.132500023E-1,2.140969932E-1,2.165099978E-1,3.248686884E-1
3.084580540E0,-1.132500023E-1,2.140969932E-1,2.165099978E-1,3.248686884E-1
3.089579771E0,-1.109910011E-1,2.117909938E-1,2.189610004E-1,3.242195970E-1
3.094579002E0,-1.109910011E-1,2.117909938E-1,2.189610004E-1,3.242195970E-1
3.099578006E0,-1.109910011E-1,2.117909938E-1,2.189610004E-1,3.242195970E-1
3.104576967E0,-1.109910011E-1,2.117909938E-1,2.189610004E-1,3.242195970E-1
3.109575698E0,-1.146249995E-1,2.104569972E-1,2.081940025E-1,3.174520134E-1
3.114574429E0,-1.146249995E-1,2.104569972E-1,2.081940025E-1,3.174520134E-1
3.119573338E0,-1.146249995E-1,2.104569972E-1,2.081940025E-1,3.174520134E-1
3.124572261E0,-1.146249995E-1,2.104569972E-1,2.081940025E-1,3.174520134E-1
3.129571222E0,-1.169119999E-1,2.100510001E-1,1.920190006E-1,3.076704974E-1
3.134570185E0,-1.169119999E-1,2.100510001E-1,1.920190006E-1,3.076704974E-1
3.139568914E0,-1.169119999E-1,2.100510001E-1,1.920190006E-1,3.076704974E-1
3.144567645E0,-1.169119999E-1,2.100510001E-1,1.920190006E-1,3.076704974E-1
3.149567223E0,-1.249699965E-1,2.103359997E-1,1.834989935E-1,3.058277512E-1
3.154566800E0,-1.249699965E-1,2.103359997E-1,1.834989935E-1,3.058277512E-1
3.159566612E0,-1.249699965E-1,2.103359997E-1,1.834989935E-1,3.058277512E-1
3.164566421E0,-1.249699965E-1,2.103359997E-1,1.834989935E-1,3.058277512E-1
3.169564880E0,-1.276690066E-1,2.099999934E-1,1.927150041E-1,3.123114556E-1
3.174563343E0,-1.276690066E-1,2.099999934E-1,1.927150041E-1,3.123114556E-1
3.179562388E0,-1.276690066E-1,2.099999934E-1,1.927150041E-1,3.123114556E-1
3.184561465E0,-1.276690066E-1,2.099999934E-1,1.927150041E-1,3.123114556E-1
3.189560271E0,-1.272130013E-1,2.215739936E-1,2.239769995E-1,3.397703322E-1
3.194559080E0,-1.272130013E-1,2.215739936E-1,2.239769995E-1,3.397703322E-1
3.199557945E0,-1.272130013E-1,2.215739936E-1,2.239769995E-1,3.397703322E-1
3.204556830E0,-1.272130013E-1,2.215739936E-1,2.239769995E-1,3.397703322E-1
3.209555329E0,-1.216579974E-1,2.465360016E-1,2.735249996E-1,3.878099970E-1
3.214553830E0,-1.216579974E-1,2.465360016E-1,2.735249996E-1,3.878099970E-1
3.219553046E0,-1.216579974E-1,2.465360016E-1,2.735249996E-1,3.878099970E-1
3.224552277E0,-1.216579974E-1,2.465360016E-1,2.735249996E-1,3.878099970E-1
3.229551949E0,-1.051840037E-1,2.720899880E-1,3.333950043E-1,4.429998477E-1
3.234551604E0,-1.051840037E-1,2.720899880E-1,3.333950043E-1,4.429998477E-1
3.239550064E0,-1.051840037E-1,2.720899880E-1,3.333950043E-1,4.429998477E-1
3.244548527E0,-1.051840037E-1,2.720899880E-1,3.333950043E-1,4.429998477E-1
3.249547796E0,-9.697800130E-2,2.848080099E-1,3.805310130E-1,4.851022439E-1
3.254547065E0,-9.697800130E-2,2.848080099E-1,3.805310130E-1,4.851022439E-1
3.259546271E0,-9.697800130E-2,2.848080099E-1,3.805310130E-1,4.851022439E-1
3.264545464E0,-9.697800130E-2,2.848080099E-1,3.805310130E-1,4.851022439E-1
3.269543195E0,-1.104120016E-1,2.835440040E-1,3.956519961E-1,4.991277535E-1
3.274540926E0,-1.104120016E-1,2.835440040E-1,3.956519961E-1,4.991277535E-1
3.279539238E0,-1.104120016E-1,2.835440040E-1,3.956519961E-1,4.991277535E-1
3.284537545E0,-1.104120016E-1,2.835440040E-1,3.956519961E-1,4.991277535E-1
3.289535544E0,-1.544220001E-1,2.664889991E-1,3.804909885E-1,4.895262333E-1
3.294533545E0,-1.544220001E-1,2.664889991E-1,3.804909885E-1,4.895262333E-1
3.299532599E0,-1.544220001E-1,2.664889991E-1,3.804909885E-1,4.895262333E-1
3.304531636E0,-1.544220001E-1,2.664889991E-1,3.804909885E-1,4.895262333E-1
3.309530135E0,-2.091089934E-1,2.380619943E-1,3.457480073E-1,4.689794972E-1
3.314528636E0,-2.091089934E-1,2.380619943E-1,3.457480073E-1,4.689794972E-1
3.319528035E0,-2.091089934E-1,2.380619943E-1,3.457480073E-1,4.689794972E-1
3.324527420E0,-2.091089934E-1,2.380619943E-1,3.457480073E-1,4.689794972E-1
3.329527073E0,-2.653369904E-1,2.047680020E-1,2.886439860E-1,4.423222849E-1
3.334526728E0,-2.653369904E-1,2.047680020E-1,2.886439860E-1,4.423222849E-1
3.339526246E0,-2.653369904E-1,2.047680020E-1,2.886439860E-1,4.423222849E-1
3.344525785E0,-2.653369904E-1,2.047680020E-1,2.886439860E-1,4.423222849E-1
3.349524708E0,-3.143399954E-1,1.698389947E-1,2.063509971E-1,4.125962322E-1
3.354523631E0,-3.143399954E-1,1.698389947E-1,2.063509971E-1,4.125962322E-1
3.359522734E0,-3.143399954E-1,1.698389947E-1,2.063509971E-1,4.125962322E-1
3.364521811E0,-3.143399954E-1,1.698389947E-1,2.063509971E-1,4.125962322E-1
3.369520001E0,-3.508639932E-1,1.407340020E-1,1.085380018E-1,3.933091645E-1
3.374518194E0,-3.508639932E-1,1.407340020E-1,1.085380018E-1,3.933091645E-1
3.379517085E0,-3.508639932E-1,1.407340020E-1,1.085380018E-1,3.933091645E-1
3.384515970E0,-3.508639932E-1,1.407340020E-1,1.085380018E-1,3.933091645E-1
3.389515508E0,-3.692969978E-1,1.219789982E-1,5.123999901E-3,3.889542440E-1
3.394515047E0,-3.692969978E-1,1.219789982E-1,5.123999901E-3,3.889542440E-1
3.399513483E0,-3.692969978E-1,1.219789982E-1,5.123999901E-3,3.889542440E-1
3.404511946E0,-3.692969978E-1,1.219789982E-1,5.123999901E-3,3.889542440E-1
3.409510869E0,-3.629269898E-1,1.103259996E-1,-8.386400342E-2,3.884855173E-1
3.414509792E0,-3.629269898E-1,1.103259996E-1,-8.386400342E-2,3.884855173E-1
3.419508156E0,-3.629269898E-1,1.103259996E-1,-8.386400342E-2,3.884855173E-1
3.424506503E0,-3.629269898E-1,1.103259996E-1,-8.386400342E-2,3.884855173E-1
3.429505695E0,-3.410069942E-1,1.080529988E-1,-1.483709961E-1,3.872662820E-1
3.434504888E0,-3.410069942E-1,1.080529988E-1,-1.483709961E-1,3.872662820E-1
3.439503511E0,-3.410069942E-1,1.080529988E-1,-1.483709961E-1,3.872662820E-1
3.444502128E0,-3.410069942E-1,1.080529988E-1,-1.483709961E-1,3.872662820E-1
3.449500319E0,-3.198980093E-1,1.160110012E-1,-1.722480059E-1,3.813956794E-1
3.454498512E0,-3.198980093E-1,1.160110012E-1,-1.722480059E-1,3.813956794E-1
3.459497686E0,-3.198980093E-1,1.160110012E-1,-1.722480059E-1,3.813956794E-1
3.464496877E0,-3.198980093E-1,1.160110012E-1,-1.722480059E-1,3.813956794E-1
3.469496493E0,-2.903130054E-1,1.368640065E-1,-1.547919959E-1,3.563340559E-1
3.474496070E0,-2.903130054E-1,1.368640065E-1,-1.547919959E-1,3.563340559E-1
3.479495147E0,-2.903130054E-1,1.368640065E-1,-1.547919959E-1,3.563340559E-1
3.484494224E0,-2.903130054E-1,1.368640065E-1,-1.547919959E-1,3.563340559E-1
3.489492734E0,-2.501839995E-1,1.641609967E-1,-1.037710011E-1,3.167164144E-1
3.494491195E0,-2.501839995E-1,1.641609967E-1,-1.037710011E-1,3.167164144E-1
3.499490283E0,-2.501839995E-1,1.641609967E-1,-1.037710011E-1,3.167164144E-1
3.504489320E0,-2.501839995E-1,1.641609967E-1,-1.037710011E-1,3.167164144E-1
3.509488127E0,-2.039940059E-1,1.859380007E-1,-3.041099943E-2,2.776892570E-1
3.514486936E0,-2.039940059E-1,1.859380007E-1,-3.041099943E-2,2.776892570E-1
3.519486022E0,-2.039940059E-1,1.859380007E-1,-3.041099943E-2,2.776892570E-1
3.524485099E0,-2.039940059E-1,1.859380007E-1,-3.041099943E-2,2.776892570E-1
3.529483545E0,-1.725710034E-1,2.042399943E-1,4.409499839E-2,2.709964859E-1
3.534482008E0,-1.725710034E-1,2.042399943E-1,4.409499839E-2,2.709964859E-1
3.539481879E0,-1.725710034E-1,2.042399943E-1,4.409499839E-2,2.709964859E-1
3.544481724E0,-1.725710034E-1,2.042399943E-1,4.409499839E-2,2.709964859E-1
3.549480487E0,-1.563609987E-1,2.179740071E-1,1.040190011E-1,2.877175391E-1
3.554479258E0,-1.563609987E-1,2.179740071E-1,1.040190011E-1,2.877175391E-1
3.559478450E0,-1.563609987E-1,2.179740071E-1,1.040190011E-1,2.877175391E-1
3.564477641E0,-1.563609987E-1,2.179740071E-1,1.040190011E-1,2.877175391E-1
3.569477333E0,-1.552370042E-1,2.218080014E-1,1.454789937E-1,3.073458224E-1
3.574477026E0,-1.552370042E-1,2.218080014E-1,1.454789937E-1,3.073458224E-1
3.579475174E0,-1.552370042E-1,2.218080014E-1,1.454789937E-1,3.073458224E-1
3.584473329E0,-1.552370042E-1,2.218080014E-1,1.454789937E-1,3.073458224E-1
3.589472561E0,-1.585360020E-1,2.137690037E-1,1.670850068E-1,3.142423434E-1
3.594471790E0,-1.585360020E-1,2.137690037E-1,1.670850068E-1,3.142423434E-1
3.599471511E0,-1.585360020E-1,2.137690037E-1,1.670850068E-1,3.142423434E-1
3.604471204E0,-1.585360020E-1,2.137690037E-1,1.670850068E-1,3.142423434E-1
3.609470126E0,-1.532730013E-1,1.938630044E-1,1.666460037E-1,2.980710787E-1
3.614469051E0,-1.532730013E-1,1.938630044E-1,1.666460037E-1,2.980710787E-1
3.619467795E0,-1.532730013E-1,1.938630044E-1,1.666460037E-1,2.980710787E-1
3.624466564E0,-1.532730013E-1,1.938630044E-1,1.666460037E-1,2.980710787E-1
3.629465483E0,-1.462019980E-1,1.719910055E-1,1.537439972E-1,2.731174599E-1
3.634464444E0,-1.462019980E-1,1.719910055E-1,1.537439972E-1,2.731174599E-1
3.639463501E0,-1.462019980E-1,1.719910055E-1,1.537439972E-1,2.731174599E-1
3.644462578E0,-1.462019980E-1,1.719910055E-1,1.537439972E-1,2.731174599E-1
3.649461962E0,-1.484320015E-1,1.550550014E-1,1.331119984E-1,2.525725968E-1
3.654461347E0,-1.484320015E-1,1.550550014E-1,1.331119984E-1,2.525725968E-1
3.659459915E0,-1.484320015E-1,1.550550014E-1,1.331119984E-1,2.525725968E-1
3.664458492E0,-1.484320015E-1,1.550550014E-1,1.331119984E-1,2.525725968E-1
3.669457570E0,-1.568350047E-1,1.477179974E-1,1.185510010E-1,2.459108889E-1
3.674456647E0,-1.568350047E-1,1.477179974E-1,1.185510010E-1,2.459108889E-1
3.679456650E0,-1.568350047E-1,1.477179974E-1,1.185510010E-1,2.459108889E-1
3.684456651E0,-1.568350047E-1,1.477179974E-1,1.185510010E-1,2.459108889E-1
3.689455418E0,-1.671070009E-1,1.481080055E-1,1.187490001E-1,2.529072085E-1
3.694454189E0,-1.671070009E-1,1.481080055E-1,1.187490001E-1,2.529072085E-1
3.699452857E0,-1.671070009E-1,1.481080055E-1,1.187490001E-1,2.529072085E-1
3.704451512E0,-1.671070009E-1,1.481080055E-1,1.187490001E-1,2.529072085E-1
3.709450242E0,-1.678930074E-1,1.512079984E-1,1.338690072E-1,2.626267919E-1
3.714448973E0,-1.678930074E-1,1.512079984E-1,1.338690072E-1,2.626267919E-1
3.719448242E0,-1.678930074E-1,1.512079984E-1,1.338690072E-1,2.626267919E-1
3.724447511E0,-1.678930074E-1,1.512079984E-1,1.338690072E-1,2.626267919E-1
3.729446395E0,-1.581300050E-1,1.573310047E-1,1.586340070E-1,2.737204627E-1
3.734445280E0,-1.581300050E-1,1.573310047E-1,1.586340070E-1,2.737204627E-1
3.739444218E0,-1.581300050E-1,1.573310047E-1,1.586340070E-1,2.737204627E-1
3.744443179E0,-1.581300050E-1,1.573310047E-1,1.586340070E-1,2.737204627E-1
3.749440871E0,-1.413410008E-1,1.580089927E-1,1.826640069E-1,2.798397036E-1
3.754438564E0,-1.413410008E-1,1.580089927E-1,1.826640069E-1,2.798397036E-1
3.759437897E0,-1.413410008E-1,1.580089927E-1,1.826640069E-1,2.798397036E-1
3.764437242E0,-1.413410008E-1,1.580089927E-1,1.826640069E-1,2.798397036E-1
3.769436663E0,-1.296840012E-1,1.599130034E-1,2.030400038E-1,2.891631926E-1
3.774436088E0,-1.296840012E-1,1.599130034E-1,2.030400038E-1,2.891631926E-1
3.779434702E0,-1.296840012E-1,1.599130034E-1,2.030400038E-1,2.891631926E-1
3.784433319E0,-1.296840012E-1,1.599130034E-1,2.030400038E-1,2.891631926E-1
3.789432357E0,-1.254779994E-1,1.620430052E-1,2.156089991E-1,2.974725271E-1
3.794431396E0,-1.254779994E-1,1.620430052E-1,2.156089991E-1,2.974725271E-1
3.799430463E0,-1.254779994E-1,1.620430052E-1,2.156089991E-1,2.974725271E-1
3.804429540E0,-1.254779994E-1,1.620430052E-1,2.156089991E-1,2.974725271E-1
3.809427385E0,-1.281690001E-1,1.682880074E-1,2.140329927E-1,3.009290082E-1
3.814425232E0,-1.281690001E-1,1.682880074E-1,2.140329927E-1,3.009290082E-1
3.819423988E0,-1.281690001E-1,1.682880074E-1,2.140329927E-1,3.009290082E-1
3.824422757E0,-1.281690001E-1,1.682880074E-1,2.140329927E-1,3.009290082E-1
3.829421102E0,-1.284070015E-1,1.771779954E-1,2.039040029E-1,2.990940362E-1
3.834419449E0,-1.284070015E-1,1.771779954E-1,2.039040029E-1,2.990940362E-1
3.839418372E0,-1.284070015E-1,1.771779954E-1,2.039040029E-1,2.990940362E-1
3.844417295E0,-1.284070015E-1,1.771779954E-1,2.039040029E-1,2.990940362E-1
3.849415703E0,-1.309999973E-1,1.810169965E-1,1.910250038E-1,2.939705842E-1
3.854414128E0,-1.309999973E-1,1.810169965E-1,1.910250038E-1,2.939705842E-1
3.859412589E0,-1.309999973E-1,1.810169965E-1,1.910250038E-1,2.939705842E-1
3.864411050E0,-1.309999973E-1,1.810169965E-1,1.910250038E-1,2.939705842E-1
3.869409396E0,-1.322080046E-1,1.821469963E-1,1.740979999E-1,2.845463026E-1
3.874407743E0,-1.322080046E-1,1.821469963E-1,1.740979999E-1,2.845463026E-1
3.879407050E0,-1.322080046E-1,1.821469963E-1,1.740979999E-1,2.845463026E-1
3.884406395E0,-1.322080046E-1,1.821469963E-1,1.740979999E-1,2.845463026E-1
3.889405356E0,-1.262110025E-1,1.761180013E-1,1.580940038E-1,2.682172283E-1
3.894404319E0,-1.262110025E-1,1.761180013E-1,1.580940038E-1,2.682172283E-1
3.899402126E0,-1.262110025E-1,1.761180013E-1,1.580940038E-1,2.682172283E-1
3.904399935E0,-1.262110025E-1,1.761180013E-1,1.580940038E-1,2.682172283E-1
3.909399358E0,-1.130319983E-1,1.664959937E-1,1.535370052E-1,2.531220269E-1
3.914398781E0,-1.130319983E-1,1.664959937E-1,1.535370052E-1,2.531220269E-1
3.919396948E0,-1.130319983E-1,1.664959937E-1,1.535370052E-1,2.531220269E-1
3.924395065E0,-1.130319983E-1,1.664959937E-1,1.535370052E-1,2.531220269E-1
3.929394026E0,-9.882300347E-2,1.565070003E-1,1.531299949E-1,2.402274391E-1
3.934392987E0,-9.882300347E-2,1.565070003E-1,1.531299949E-1,2.402274391E-1
3.939391726E0,-9.882300347E-2,1.565070003E-1,1.531299949E-1,2.402274391E-1
3.944390457E0,-9.882300347E-2,1.565070003E-1,1.531299949E-1,2.402274391E-1
3.949388304E0,-8.828099817E-2,1.531649977E-1,1.523679942E-1,2.333860682E-1
3.954386151E0,-8.828099817E-2,1.531649977E-1,1.523679942E-1,2.333860682E-1
3.959384272E0,-8.828099817E-2,1.531649977E-1,1.523679942E-1,2.333860682E-1
3.964382425E0,-8.828099817E-2,1.531649977E-1,1.523679942E-1,2.333860682E-1
3.969381541E0,-7.911899686E-2,1.574980021E-1,1.567389965E-1,2.358655323E-1
3.974380656E0,-7.911899686E-2,1.574980021E-1,1.567389965E-1,2.358655323E-1
3.979378952E0,-7.911899686E-2,1.574980021E-1,1.567389965E-1,2.358655323E-1
3.984377261E0,-7.911899686E-2,1.574980021E-1,1.567389965E-1,2.358655323E-1
3.989376031E0,-7.254800200E-2,1.597490013E-1,1.699489951E-1,2.442654641E-1
3.994374800E0,-7.254800200E-2,1.597490013E-1,1.699489951E-1,2.442654641E-1
3.999373371E0,-7.254800200E-2,1.597490013E-1,1.699489951E-1,2.442654641E-1
4.004371948E0,-7.254800200E-2,1.597490013E-1,1.699489951E-1,2.442654641E-1
4.009370872E0,-7.047399879E-2,1.507110000E-1,1.945389956E-1,2.559800985E-1
4.014369795E0,-7.047399879E-2,1.507110000E-1,1.945389956E-1,2.559800985E-1
4.019367996E0,-7.047399879E-2,1.507110000E-1,1.945389956E-1,2.559800985E-1
4.024366189E0,-7.047399879E-2,1.507110000E-1,1.945389956E-1,2.559800985E-1
4.029365421E0,-7.886400074E-2,1.386470050E-1,2.209729999E-1,2.725281440E-1
4.034364650E0,-7.886400074E-2,1.386470050E-1,2.209729999E-1,2.725281440E-1
4.039362812E0,-7.886400074E-2,1.386470050E-1,2.209729999E-1,2.725281440E-1
4.044360967E0,-7.886400074E-2,1.386470050E-1,2.209729999E-1,2.725281440E-1
4.049358968E0,-9.650000185E-2,1.236670017E-1,2.426010072E-1,2.888962208E-1
4.054356967E0,-9.650000185E-2,1.236670017E-1,2.426010072E-1,2.888962208E-1
4.059355734E0,-9.650000185E-2,1.236670017E-1,2.426010072E-1,2.888962208E-1
4.064354503E0,-9.650000185E-2,1.236670017E-1,2.426010072E-1,2.888962208E-1
4.069354155E0,-1.043410003E-1,1.048680022E-1,2.578279972E-1,2.972534582E-1
4.074353810E0,-1.043410003E-1,1.048680022E-1,2.578279972E-1,2.972534582E-1
4.079351962E0,-1.043410003E-1,1.048680022E-1,2.578279972E-1,2.972534582E-1
4.084350117E0,-1.043410003E-1,1.048680022E-1,2.578279972E-1,2.972534582E-1
4.089349661E0,-1.066289991E-1,9.042599797E-2,2.788229883E-1,3.119116275E-1
4.094349198E0,-1.066289991E-1,9.042599797E-2,2.788229883E-1,3.119116275E-1
4.099348775E0,-1.066289991E-1,9.042599797E-2,2.788229883E-1,3.119116275E-1
4.104348352E0,-1.066289991E-1,9.042599797E-2,2.788229883E-1,3.119116275E-1
4.109346630E0,-1.034260020E-1,8.202999830E-2,3.186269999E-1,3.448898716E-1
4.114344939E0,-1.034260020E-1,8.202999830E-2,3.186269999E-1,3.448898716E-1
4.119343849E0,-1.034260020E-1,8.202999830E-2,3.186269999E-1,3.448898716E-1
4.124342772E0,-1.034260020E-1,8.202999830E-2,3.186269999E-1,3.448898716E-1
4.129341040E0,-8.424899727E-2,6.997799873E-2,3.670639992E-1,3.830545566E-1
4.134339311E0,-8.424899727E-2,6.997799873E-2,3.670639992E-1,3.830545566E-1
4.139337467E0,-8.424899727E-2,6.997799873E-2,3.670639992E-1,3.830545566E-1
4.144335622E0,-8.424899727E-2,6.997799873E-2,3.670639992E-1,3.830545566E-1
4.149334737E0,-4.947699979E-2,4.633900151E-2,4.175679982E-1,4.230346436E-1
4.154333852E0,-4.947699979E-2,4.633900151E-2,4.175679982E-1,4.230346436E-1
4.159332471E0,-4.947699979E-2,4.633900151E-2,4.175679982E-1,4.230346436E-1
4.164331088E0,-4.947699979E-2,4.633900151E-2,4.175679982E-1,4.230346436E-1
4.169330627E0,-1.374700014E-2,2.259999979E-3,4.449819922E-1,4.452000236E-1
4.174330164E0,-1.374700014E-2,2.259999979E-3,4.449819922E-1,4.452000236E-1
4.179329548E0,-1.374700014E-2,2.259999979E-3,4.449819922E-1,4.452000236E-1
4.184328933E0,-1.374700014E-2,2.259999979E-3,4.449819922E-1,4.452000236E-1
4.189327511E0,8.580000140E-3,-5.524199829E-2,4.323740005E-1,4.359731312E-1
4.194326088E0,8.580000140E-3,-5.524199829E-2,4.323740005E-1,4.359731312E-1
4.199325306E0,8.580000140E-3,-5.524199829E-2,4.323740005E-1,4.359731312E-1
4.204324537E0,8.580000140E-3,-5.524199829E-2,4.323740005E-1,4.359731312E-1
4.209323613E0,4.060999956E-3,-1.196440011E-1,3.949910104E-1,4.127336636E-1
4.214322690E0,4.060999956E-3,-1.196440011E-1,3.949910104E-1,4.127336636E-1
4.219322118E0,4.060999956E-3,-1.196440011E-1,3.949910104E-1,4.127336636E-1
4.224321541E0,4.060999956E-3,-1.196440011E-1,3.949910104E-1,4.127336636E-1
4.229321232E0,-2.185099944E-2,-1.795530021E-1,3.614979982E-1,4.042246275E-1
4.234320925E0,-2.185099944E-2,-1.795530021E-1,3.614979982E-1,4.042246275E-1
4.239319875E0,-2.185099944E-2,-1.795530021E-1,3.614979982E-1,4.042246275E-1
4.244318800E0,-2.185099944E-2,-1.795530021E-1,3.614979982E-1,4.042246275E-1
4.249317569E0,-5.442700163E-2,-2.514779866E-1,3.564479947E-1,4.396119302E-1
4.254316338E0,-5.442700163E-2,-2.514779866E-1,3.564479947E-1,4.396119302E-1
4.259315376E0,-5.442700163E-2,-2.514779866E-1,3.564479947E-1,4.396119302E-1
4.264314415E0,-5.442700163E-2,-2.514779866E-1,3.564479947E-1,4.396119302E-1
4.269314298E0,-7.469599694E-2,-3.427700102E-1,3.915269971E-1,5.257034918E-1
4.274314183E0,-7.469599694E-2,-3.427700102E-1,3.915269971E-1,5.257034918E-1
4.279312034E0,-7.469599694E-2,-3.427700102E-1,3.915269971E-1,5.257034918E-1
4.284309881E0,-7.469599694E-2,-3.427700102E-1,3.915269971E-1,5.257034918E-1
4.289308343E0,-9.024400264E-2,-4.463999867E-1,4.449509978E-1,6.367089748E-1
4.294306804E0,-9.024400264E-2,-4.463999867E-1,4.449509978E-1,6.367089748E-1
4.299305673E0,-9.024400264E-2,-4.463999867E-1,4.449509978E-1,6.367089748E-1
4.304304558E0,-9.024400264E-2,-4.463999867E-1,4.449509978E-1,6.367089748E-1
4.309303828E0,-1.145140007E-1,-5.514839888E-1,4.968309999E-1,7.510586453E-1
4.314303097E0,-1.145140007E-1,-5.514839888E-1,4.968309999E-1,7.510586453E-1
4.319301694E0,-1.145140007E-1,-5.514839888E-1,4.968309999E-1,7.510586453E-1
4.324300309E0,-1.145140007E-1,-5.514839888E-1,4.968309999E-1,7.510586453E-1
4.329299209E0,-1.606699973E-1,-6.472569704E-1,5.431529880E-1,8.600997629E-1
4.334298132E0,-1.606699973E-1,-6.472569704E-1,5.431529880E-1,8.600997629E-1
4.339296862E0,-1.606699973E-1,-6.472569704E-1,5.431529880E-1,8.600997629E-1
4.344295593E0,-1.606699973E-1,-6.472569704E-1,5.431529880E-1,8.600997629E-1
4.349294234E0,-2.091729939E-1,-7.303259969E-1,5.903199911E-1,9.620847650E-1
4.354292887E0,-2.091729939E-1,-7.303259969E-1,5.903199911E-1,9.620847650E-1
4.359291969E0,-2.091729939E-1,-7.303259969E-1,5.903199911E-1,9.620847650E-1
4.364291046E0,-2.091729939E-1,-7.303259969E-1,5.903199911E-1,9.620847650E-1
4.369289352E0,-2.666560113E-1,-7.822489738E-1,6.372410059E-1,1.043597137E0
4.374287661E0,-2.666560113E-1,-7.822489738E-1,6.372410059E-1,1.043597137E0
4.379286297E0,-2.666560113E-1,-7.822489738E-1,6.372410059E-1,1.043597137E0
4.384284912E0,-2.666560113E-1,-7.822489738E-1,6.372410059E-1,1.043597137E0
4.389283988E0,-3.395380080E-1,-7.963719964E-1,6.831189990E-1,1.102790090E0
4.394283065E0,-3.395380080E-1,-7.963719964E-1,6.831189990E-1,1.102790090E0
4.399283040E0,-3.395380080E-1,-7.963719964E-1,6.831189990E-1,1.102790090E0
4.404283003E0,-3.395380080E-1,-7.963719964E-1,6.831189990E-1,1.102790090E0
4.409281809E0,-4.086290002E-1,-7.783179879E-1,7.325850129E-1,1.144306494E0
4.414280618E0,-4.086290002E-1,-7.783179879E-1,7.325850129E-1,1.144306494E0
4.419279965E0,-4.086290002E-1,-7.783179879E-1,7.325850129E-1,1.144306494E0
4.424279310E0,-4.086290002E-1,-7.783179879E-1,7.325850129E-1,1.144306494E0
4.429278579E0,-4.436430037E-1,-7.324920297E-1,7.838780284E-1,1.160960142E0
4.434277848E0,-4.436430037E-1,-7.324920297E-1,7.838780284E-1,1.160960142E0
4.439276613E0,-4.436430037E-1,-7.324920297E-1,7.838780284E-1,1.160960142E0
4.444275382E0,-4.436430037E-1,-7.324920297E-1,7.838780284E-1,1.160960142E0
4.449273819E0,-4.334169924E-1,-6.688280106E-1,8.188400269E-1,1.142663637E0
4.454272242E0,-4.334169924E-1,-6.688280106E-1,8.188400269E-1,1.142663637E0
4.459270859E0,-4.334169924E-1,-6.688280106E-1,8.188400269E-1,1.142663637E0
4.464269474E0,-4.334169924E-1,-6.688280106E-1,8.188400269E-1,1.142663637E0
4.469269012E0,-3.784779906E-1,-5.984299779E-1,8.160129786E-1,1.080389378E0
4.474268551E0,-3.784779906E-1,-5.984299779E-1,8.160129786E-1,1.080389378E0
4.479266697E0,-3.784779906E-1,-5.984299779E-1,8.160129786E-1,1.080389378E0
4.484264852E0,-3.784779906E-1,-5.984299779E-1,8.160129786E-1,1.080389378E0
4.489263315E0,-3.033429980E-1,-5.397959948E-1,7.673289776E-1,9.859971857E-1
4.494261776E0,-3.033429980E-1,-5.397959948E-1,7.673289776E-1,9.859971857E-1
4.499259971E0,-3.033429980E-1,-5.397959948E-1,7.673289776E-1,9.859971857E-1
4.504258164E0,-3.033429980E-1,-5.397959948E-1,7.673289776E-1,9.859971857E-1
4.509256781E0,-2.446549982E-1,-4.904530048E-1,6.922580004E-1,8.829616963E-1
4.514255396E0,-2.446549982E-1,-4.904530048E-1,6.922580004E-1,8.829616963E-1
4.519254621E0,-2.446549982E-1,-4.904530048E-1,6.922580004E-1,8.829616963E-1
4.524253852E0,-2.446549982E-1,-4.904530048E-1,6.922580004E-1,8.829616963E-1
4.529252462E0,-2.146919966E-1,-4.414179921E-1,6.125249863E-1,7.849390779E-1
4.534251079E0,-2.146919966E-1,-4.414179921E-1,6.125249863E-1,7.849390779E-1
4.539249497E0,-2.146919966E-1,-4.414179921E-1,6.125249863E-1,7.849390779E-1
4.544247920E0,-2.146919966E-1,-4.414179921E-1,6.125249863E-1,7.849390779E-1
4.549247152E0,-1.961510032E-1,-3.894860148E-1,5.296739936E-1,6.860970130E-1
4.554246383E0,-1.961510032E-1,-3.894860148E-1,5.296739936E-1,6.860970130E-1
4.559245612E0,-1.961510032E-1,-3.894860148E-1,5.296739936E-1,6.860970130E-1
4.564244843E0,-1.961510032E-1,-3.894860148E-1,5.296739936E-1,6.860970130E-1
4.569244112E0,-1.736039966E-1,-3.378059864E-1,4.337469935E-1,5.765307334E-1
4.574243383E0,-1.736039966E-1,-3.378059864E-1,4.337469935E-1,5.765307334E-1
4.579241399E0,-1.736039966E-1,-3.378059864E-1,4.337469935E-1,5.765307334E-1
4.584239400E0,-1.736039966E-1,-3.378059864E-1,4.337469935E-1,5.765307334E-1
4.589237054E0,-1.431359947E-1,-3.059529960E-1,3.230949938E-1,4.674243509E-1
4.594234709E0,-1.431359947E-1,-3.059529960E-1,3.230949938E-1,4.674243509E-1
4.599233238E0,-1.431359947E-1,-3.059529960E-1,3.230949938E-1,4.674243509E-1
4.604231737E0,-1.431359947E-1,-3.059529960E-1,3.230949938E-1,4.674243509E-1
4.609229890E0,-1.051679999E-1,-3.141640127E-1,2.013420016E-1,3.876827784E-1
4.614228045E0,-1.051679999E-1,-3.141640127E-1,2.013420016E-1,3.876827784E-1
4.619226974E0,-1.051679999E-1,-3.141640127E-1,2.013420016E-1,3.876827784E-1
4.624225897E0,-1.051679999E-1,-3.141640127E-1,2.013420016E-1,3.876827784E-1
4.629225280E0,-8.234400302E-2,-3.768830001E-1,1.215019971E-1,4.044552706E-1
4.634224665E0,-8.234400302E-2,-3.768830001E-1,1.215019971E-1,4.044552706E-1
4.639222798E0,-8.234400302E-2,-3.768830001E-1,1.215019971E-1,4.044552706E-1
4.644220953E0,-8.234400302E-2,-3.768830001E-1,1.215019971E-1,4.044552706E-1
4.649219839E0,-8.262699842E-2,-6.304609776E-1,1.309089959E-1,6.491882857E-1
4.654218722E0,-8.262699842E-2,-6.304609776E-1,1.309089959E-1,6.491882857E-1
4.659217039E0,-8.262699842E-2,-6.304609776E-1,1.309089959E-1,6.491882857E-1
4.664215348E0,-8.262699842E-2,-6.304609776E-1,1.309089959E-1,6.491882857E-1
4.669214117E0,1.259330064E-1,-1.039729953E0,3.476150036E-1,1.103509713E0
4.674212886E0,1.259330064E-1,-1.039729953E0,3.476150036E-1,1.103509713E0
4.679211712E0,1.259330064E-1,-1.039729953E0,3.476150036E-1,1.103509713E0
4.684210521E0,1.259330064E-1,-1.039729953E0,3.476150036E-1,1.103509713E0
4.689207750E0,3.714999855E-1,-1.547667027E0,7.303400040E-1,1.751194445E0
4.694204983E0,3.714999855E-1,-1.547667027E0,7.303400040E-1,1.751194445E0
4.699205460E0,3.714999855E-1,-1.547667027E0,7.303400040E-1,1.751194445E0
4.704205919E0,3.714999855E-1,-1.547667027E0,7.303400040E-1,1.751194445E0
4.709205264E0,5.719450116E-1,-2.077536106E0,1.234506965E0,2.483401863E0
4.714204611E0,5.719450116E-1,-2.077536106E0,1.234506965E0,2.483401863E0
4.719203534E0,5.719450116E-1,-2.077536106E0,1.234506965E0,2.483401863E0
4.724202457E0,5.719450116E-1,-2.077536106E0,1.234506965E0,2.483401863E0
4.729201694E0,3.869709969E-1,-2.450459003E0,1.787706971E0,3.057841084E0
4.734200925E0,3.869709969E-1,-2.450459003E0,1.787706971E0,3.057841084E0
4.739199731E0,3.869709969E-1,-2.450459003E0,1.787706971E0,3.057841084E0
4.744198540E0,3.869709969E-1,-2.450459003E0,1.787706971E0,3.057841084E0
4.749196834E0,7.660999894E-3,-2.910142899E0,2.214885950E0,3.657145082E0
4.754195141E0,7.660999894E-3,-2.910142899E0,2.214885950E0,3.657145082E0
4.759194507E0,7.660999894E-3,-2.910142899E0,2.214885950E0,3.657145082E0
4.764193852E0,7.660999894E-3,-2.910142899E0,2.214885950E0,3.657145082E0
4.769192197E0,-3.064000010E-1,-3.219193935E0,2.515130997E0,4.096702880E0
4.774190549E0,-3.064000010E-1,-3.219193935E0,2.515130997E0,4.096702880E0
4.779189011E0,-3.064000010E-1,-3.219193935E0,2.515130997E0,4.096702880E0
4.784187472E0,-3.064000010E-1,-3.219193935E0,2.515130997E0,4.096702880E0
4.789186819E0,-7.716280222E-1,-3.336939096E0,2.725557089E0,4.377126201E0
4.794186166E0,-7.716280222E-1,-3.336939096E0,2.725557089E0,4.377126201E0
4.799184986E0,-7.716280222E-1,-3.336939096E0,2.725557089E0,4.377126201E0
4.804183795E0,-7.716280222E-1,-3.336939096E0,2.725557089E0,4.377126201E0
4.809182833E0,-1.043534994E0,-3.096883059E0,2.810090065E0,4.310018113E0
4.814181872E0,-1.043534994E0,-3.096883059E0,2.810090065E0,4.310018113E0
4.819180491E0,-1.043534994E0,-3.096883059E0,2.810090065E0,4.310018113E0
4.824179108E0,-1.043534994E0,-3.096883059E0,2.810090065E0,4.310018113E0
4.829177300E0,-7.925860286E-1,-2.840894938E0,2.120377064E0,3.632475127E0
4.834175493E0,-7.925860286E-1,-2.840894938E0,2.120377064E0,3.632475127E0
4.839173830E0,-7.925860286E-1,-2.840894938E0,2.120377064E0,3.632475127E0
4.844172137E0,-7.925860286E-1,-2.840894938E0,2.120377064E0,3.632475127E0
4.849170751E0,-3.434099853E-1,-2.852468967E0,8.224229813E-1,2.988459334E0
4.854169368E0,-3.434099853E-1,-2.852468967E0,8.224229813E-1,2.988459334E0
4.859168597E0,-3.434099853E-1,-2.852468967E0,8.224229813E-1,2.988459334E0
4.864167828E0,-3.434099853E-1,-2.852468967E0,8.224229813E-1,2.988459334E0
4.869167175E0,2.137330025E-1,-2.856622934E0,-3.748759925E-1,2.889032432E0
4.874166522E0,2.137330025E-1,-2.856622934E0,-3.748759925E-1,2.889032432E0
4.879164813E0,2.137330025E-1,-2.856622934E0,-3.748759925E-1,2.889032432E0
4.884163122E0,2.137330025E-1,-2.856622934E0,-3.748759925E-1,2.889032432E0
4.889161891E0,8.770120144E-1,-2.822619915E0,-1.214763045E0,3.195619269E0
4.894160660E0,8.770120144E-1,-2.822619915E0,-1.214763045E0,3.195619269E0
4.899160039E0,8.770120144E-1,-2.822619915E0,-1.214763045E0,3.195619269E0
4.904159424E0,8.770120144E-1,-2.822619915E0,-1.214763045E0,3.195619269E0
4.909157770E0,1.596613050E0,-2.777195930E0,-9.718610048E-1,3.347611728E0
4.914156117E0,1.596613050E0,-2.777195930E0,-9.718610048E-1,3.347611728E0
4.919155194E0,1.596613050E0,-2.777195930E0,-9.718610048E-1,3.347611728E0
4.924154233E0,1.596613050E0,-2.777195930E0,-9.718610048E-1,3.347611728E0
4.929152736E0,2.152925968E0,-2.407107115E0,3.916569948E-1,3.253098536E0
4.934151237E0,2.152925968E0,-2.407107115E0,3.916569948E-1,3.253098536E0
4.939151047E0,2.152925968E0,-2.407107115E0,3.916569948E-1,3.253098536E0
4.944150854E0,2.152925968E0,-2.407107115E0,3.916569948E-1,3.253098536E0
4.949149505E0,2.274137974E0,-1.494539022E0,1.601763010E0,3.157688261E0
4.954148160E0,2.274137974E0,-1.494539022E0,1.601763010E0,3.157688261E0
4.959147074E0,2.274137974E0,-1.494539022E0,1.601763010E0,3.157688261E0
4.964145997E0,2.274137974E0,-1.494539022E0,1.601763010E0,3.157688261E0
4.969144419E0,2.029012918E0,-3.690100089E-2,1.490751028E0,2.518053561E0
4.974142844E0,2.029012918E0,-3.690100089E-2,1.490751028E0,2.518053561E0
4.979140757E0,2.029012918E0,-3.690100089E-2,1.490751028E0,2.518053561E0
4.984138642E0,2.029012918E0,-3.690100089E-2,1.490751028E0,2.518053561E0
4.989136950E0,1.859063029E0,2.056444883E0,-4.062500000E-1,2.801806554E0
4.994135257E0,1.859063029E0,2.056444883E0,-4.062500000E-1,2.801806554E0
4.999133235E0,1.859063029E0,2.056444883E0,-4.062500000E-1,2.801806554E0
5.004131236E0,1.859063029E0,2.056444883E0,-4.062500000E-1,2.801806554E0
5.009130430E0,1.153174996E0,3.741724968E0,-2.109441042E0,4.447477916E0
5.014129621E0,1.153174996E0,3.741724968E0,-2.109441042E0,4.447477916E0
5.019128002E0,1.153174996E0,3.741724968E0,-2.109441042E0,4.447477916E0
5.024126349E0,1.153174996E0,3.741724968E0,-2.109441042E0,4.447477916E0
5.029125118E0,4.241079986E-1,3.845123053E0,-2.150810003E0,4.426152116E0
5.034123887E0,4.241079986E-1,3.845123053E0,-2.150810003E0,4.426152116E0
5.039121529E0,4.241079986E-1,3.845123053E0,-2.150810003E0,4.426152116E0
5.044119184E0,4.241079986E-1,3.845123053E0,-2.150810003E0,4.426152116E0
5.049118263E0,-3.171460032E-1,3.519965887E0,-1.192530036E0,3.729995887E0
5.054117338E0,-3.171460032E-1,3.519965887E0,-1.192530036E0,3.729995887E0
5.059115948E0,-3.171460032E-1,3.519965887E0,-1.192530036E0,3.729995887E0
5.064114603E0,-3.171460032E-1,3.519965887E0,-1.192530036E0,3.729995887E0
5.069112758E0,-1.052497983E0,3.220298052E0,-2.914980054E-1,3.400447417E0
5.074110911E0,-1.052497983E0,3.220298052E0,-2.914980054E-1,3.400447417E0
5.079108609E0,-1.052497983E0,3.220298052E0,-2.914980054E-1,3.400447417E0
5.084106300E0,-1.052497983E0,3.220298052E0,-2.914980054E-1,3.400447417E0
5.089104763E0,-1.270560026E0,3.173295021E0,-3.271600008E-1,3.433825525E0
5.094103224E0,-1.270560026E0,3.173295021E0,-3.271600008E-1,3.433825525E0
5.099101637E0,-1.270560026E0,3.173295021E0,-3.271600008E-1,3.433825525E0
5.104100060E0,-1.270560026E0,3.173295021E0,-3.271600008E-1,3.433825525E0
5.109098253E0,-1.113062024E0,3.070945024E0,-6.390879750E-1,3.328369549E0
5.114096444E0,-1.113062024E0,3.070945024E0,-6.390879750E-1,3.328369549E0
5.119095479E0,-1.113062024E0,3.070945024E0,-6.390879750E-1,3.328369549E0
5.124094516E0,-1.113062024E0,3.070945024E0,-6.390879750E-1,3.328369549E0
5.129092948E0,-5.175920129E-1,2.383200884E0,-2.738969922E-1,2.454091992E0
5.134091411E0,-5.175920129E-1,2.383200884E0,-2.738969922E-1,2.454091992E0
5.139091128E0,-5.175920129E-1,2.383200884E0,-2.738969922E-1,2.454091992E0
5.144090859E0,-5.175920129E-1,2.383200884E0,-2.738969922E-1,2.454091992E0
5.149089896E0,-5.235800147E-2,1.320606947E0,1.520565987E0,2.014662500E0
5.154088935E0,-5.235800147E-2,1.320606947E0,1.520565987E0,2.014662500E0
5.159088205E0,-5.235800147E-2,1.320606947E0,1.520565987E0,2.014662500E0
5.164087474E0,-5.235800147E-2,1.320606947E0,1.520565987E0,2.014662500E0
5.169086396E0,-5.257700011E-2,2.172400057E-1,4.173721790E0,4.179702279E0
5.174085321E0,-5.257700011E-2,2.172400057E-1,4.173721790E0,4.179702279E0
5.179083474E0,-5.257700011E-2,2.172400057E-1,4.173721790E0,4.179702279E0
5.184081627E0,-5.257700011E-2,2.172400057E-1,4.173721790E0,4.179702279E0
5.189080859E0,-9.674170017E-1,-6.718930006E-1,6.577680111E0,6.682305852E0
5.194080090E0,-9.674170017E-1,-6.718930006E-1,6.577680111E0,6.682305852E0
5.199078073E0,-9.674170017E-1,-6.718930006E-1,6.577680111E0,6.682305852E0
5.204076074E0,-9.674170017E-1,-6.718930006E-1,6.577680111E0,6.682305852E0
5.209075152E0,-1.939411998E0,-1.348356009E0,8.551856041E0,8.872069915E0
5.214074229E0,-1.939411998E0,-1.348356009E0,8.551856041E0,8.872069915E0
5.219073401E0,-1.939411998E0,-1.348356009E0,8.551856041E0,8.872069915E0
5.224072594E0,-1.939411998E0,-1.348356009E0,8.551856041E0,8.872069915E0
5.229071516E0,-1.677258968E0,-1.789829016E0,1.001619053E1,1.031216555E1
5.234070441E0,-1.677258968E0,-1.789829016E0,1.001619053E1,1.031216555E1
5.239069051E0,-1.677258968E0,-1.789829016E0,1.001619053E1,1.031216555E1
5.244067666E0,-1.677258968E0,-1.789829016E0,1.001619053E1,1.031216555E1
5.249066628E0,-4.939090014E-1,-1.815511942E0,1.034710884E1,1.051678140E1
5.254065589E0,-4.939090014E-1,-1.815511942E0,1.034710884E1,1.051678140E1
5.259063544E0,-4.939090014E-1,-1.815511942E0,1.034710884E1,1.051678140E1
5.264061507E0,-4.939090014E-1,-1.815511942E0,1.034710884E1,1.051678140E1
5.269060931E0,6.893929839E-1,-1.729666948E0,9.699423790E0,9.876529365E0
5.274060354E0,6.893929839E-1,-1.729666948E0,9.699423790E0,9.876529365E0
5.279058785E0,6.893929839E-1,-1.729666948E0,9.699423790E0,9.876529365E0
5.284057248E0,6.893929839E-1,-1.729666948E0,9.699423790E0,9.876529365E0
5.289055363E0,1.558506966E0,-1.430299044E0,8.664389610E0,8.918875862E0
5.294053478E0,1.558506966E0,-1.430299044E0,8.664389610E0,8.918875862E0
5.299051632E0,1.558506966E0,-1.430299044E0,8.664389610E0,8.918875862E0
5.304049785E0,1.558506966E0,-1.430299044E0,8.664389610E0,8.918875862E0
5.309048132E0,2.530453920E0,-1.118602037E0,7.784975052E0,8.261979431E0
5.314046479E0,2.530453920E0,-1.118602037E0,7.784975052E0,8.261979431E0
5.319045093E0,2.530453920E0,-1.118602037E0,7.784975052E0,8.261979431E0
5.324043708E0,2.530453920E0,-1.118602037E0,7.784975052E0,8.261979431E0
5.329042295E0,3.257967949E0,-7.679190040E-1,6.649849892E0,7.444767178E0
5.334040872E0,3.257967949E0,-7.679190040E-1,6.649849892E0,7.444767178E0
5.339038449E0,3.257967949E0,-7.679190040E-1,6.649849892E0,7.444767178E0
5.344035988E0,3.257967949E0,-7.679190040E-1,6.649849892E0,7.444767178E0
5.349035066E0,3.471589088E0,-3.756250143E-1,4.950355053E0,6.057973267E0
5.354034141E0,3.471589088E0,-3.756250143E-1,4.950355053E0,6.057973267E0
5.359032789E0,3.471589088E0,-3.756250143E-1,4.950355053E0,6.057973267E0
5.364031444E0,3.471589088E0,-3.756250143E-1,4.950355053E0,6.057973267E0
5.369029445E0,3.116839886E0,1.441199984E-2,2.816127062E0,4.200651165E0
5.374027444E0,3.116839886E0,1.441199984E-2,2.816127062E0,4.200651165E0
5.379026363E0,3.116839886E0,1.441199984E-2,2.816127062E0,4.200651165E0
5.384025286E0,3.116839886E0,1.441199984E-2,2.816127062E0,4.200651165E0
5.389022938E0,2.553030968E0,5.164129734E-1,9.223300219E-1,2.763212288E0
5.394020593E0,2.553030968E0,5.164129734E-1,9.223300219E-1,2.763212288E0
5.399019854E0,2.553030968E0,5.164129734E-1,9.223300219E-1,2.763212288E0
5.404019083E0,2.553030968E0,5.164129734E-1,9.223300219E-1,2.763212288E0
5.409017429E0,2.083074093E0,9.342060089E-1,-5.456299782E-1,2.347264497E0
5.414015776E0,2.083074093E0,9.342060089E-1,-5.456299782E-1,2.347264497E0
5.419014397E0,2.083074093E0,9.342060089E-1,-5.456299782E-1,2.347264497E0
5.424013012E0,2.083074093E0,9.342060089E-1,-5.456299782E-1,2.347264497E0
5.429010972E0,1.749575019E0,1.260444999E0,-1.626801968E0,2.701151418E0
5.434008935E0,1.749575019E0,1.260444999E0,-1.626801968E0,2.701151418E0
5.439007292E0,1.749575019E0,1.260444999E0,-1.626801968E0,2.701151418E0
5.444005637E0,1.749575019E0,1.260444999E0,-1.626801968E0,2.701151418E0
5.449004521E0,1.507619977E0,1.498656988E0,-2.360935926E0,3.176933933E0
5.454003406E0,1.507619977E0,1.498656988E0,-2.360935926E0,3.176933933E0
5.459003113E0,1.507619977E0,1.498656988E0,-2.360935926E0,3.176933933E0
5.464002806E0,1.507619977E0,1.498656988E0,-2.360935926E0,3.176933933E0
5.469001266E0,1.371353030E0,1.657459021E0,-2.829308987E0,3.554260666E0
5.473999729E0,1.371353030E0,1.657459021E0,-2.829308987E0,3.554260666E0
5.478998826E0,1.371353030E0,1.657459021E0,-2.829308987E0,3.554260666E0
5.483997941E0,1.371353030E0,1.657459021E0,-2.829308987E0,3.554260666E0
5.488995746E0,1.457517982E0,1.709732056E0,-3.180413008E0,3.893914389E0
5.493993555E0,1.457517982E0,1.709732056E0,-3.180413008E0,3.893914389E0
5.498992026E0,1.457517982E0,1.709732056E0,-3.180413008E0,3.893914389E0
5.503990487E0,1.457517982E0,1.709732056E0,-3.180413008E0,3.893914389E0
5.508988795E0,1.498221040E0,1.680735946E0,-3.675751925E0,4.310532660E0
5.513987104E0,1.498221040E0,1.680735946E0,-3.675751925E0,4.310532660E0
5.518985157E0,1.498221040E0,1.680735946E0,-3.675751925E0,4.310532660E0
5.523983196E0,1.498221040E0,1.680735946E0,-3.675751925E0,4.310532660E0
5.528981936E0,1.492789030E0,1.619624972E0,-4.109520912E0,4.662592226E0
5.533980705E0,1.492789030E0,1.619624972E0,-4.109520912E0,4.662592226E0
5.538979011E0,1.492789030E0,1.619624972E0,-4.109520912E0,4.662592226E0
5.543977320E0,1.492789030E0,1.619624972E0,-4.109520912E0,4.662592226E0
5.548975936E0,1.491969943E0,1.538277984E0,-4.606748104E0,5.080787494E0
5.553974551E0,1.491969943E0,1.538277984E0,-4.606748104E0,5.080787494E0
5.558972819E0,1.491969943E0,1.538277984E0,-4.606748104E0,5.080787494E0
5.563971090E0,1.491969943E0,1.538277984E0,-4.606748104E0,5.080787494E0
5.568969090E0,1.577353001E0,1.439277053E0,-5.002908230E0,5.439545172E0
5.573967089E0,1.577353001E0,1.439277053E0,-5.002908230E0,5.439545172E0
5.578965604E0,1.577353001E0,1.439277053E0,-5.002908230E0,5.439545172E0
5.583964103E0,1.577353001E0,1.439277053E0,-5.002908230E0,5.439545172E0
5.588963295E0,1.548967004E0,1.329831004E0,-5.304160118E0,5.683472868E0
5.593962488E0,1.548967004E0,1.329831004E0,-5.304160118E0,5.683472868E0
5.598960928E0,1.548967004E0,1.329831004E0,-5.304160118E0,5.683472868E0
5.603959391E0,1.548967004E0,1.329831004E0,-5.304160118E0,5.683472868E0
5.608958507E0,1.417283058E0,1.188907027E0,-5.444738865E0,5.750423679E0
5.613957622E0,1.417283058E0,1.188907027E0,-5.444738865E0,5.750423679E0
5.618957154E0,1.417283058E0,1.188907027E0,-5.444738865E0,5.750423679E0
5.623956693E0,1.417283058E0,1.188907027E0,-5.444738865E0,5.750423679E0
5.628955423E0,1.270252943E0,1.030848026E0,-5.269265175E0,5.517367640E0
5.633954156E0,1.270252943E0,1.030848026E0,-5.269265175E0,5.517367640E0
5.638951901E0,1.270252943E0,1.030848026E0,-5.269265175E0,5.517367640E0
5.643949632E0,1.270252943E0,1.030848026E0,-5.269265175E0,5.517367640E0
5.648947940E0,1.188109994E0,8.366760015E-1,-5.005615234E0,5.212275507E0
5.653946247E0,1.188109994E0,8.366760015E-1,-5.005615234E0,5.212275507E0
5.658944727E0,1.188109994E0,8.366760015E-1,-5.005615234E0,5.212275507E0
5.663943190E0,1.188109994E0,8.366760015E-1,-5.005615234E0,5.212275507E0
5.668942535E0,1.154119968E0,6.083970070E-1,-4.503655910E0,4.688822494E0
5.673941882E0,1.154119968E0,6.083970070E-1,-4.503655910E0,4.688822494E0
5.678940048E0,1.154119968E0,6.083970070E-1,-4.503655910E0,4.688822494E0
5.683938203E0,1.154119968E0,6.083970070E-1,-4.503655910E0,4.688822494E0
5.688936243E0,1.087684035E0,3.775179982E-1,-3.842567921E0,4.011346984E0
5.693934280E0,1.087684035E0,3.775179982E-1,-3.842567921E0,4.011346984E0
5.698932218E0,1.087684035E0,3.775179982E-1,-3.842567921E0,4.011346984E0
5.703930179E0,1.087684035E0,3.775179982E-1,-3.842567921E0,4.011346984E0
5.708928641E0,1.205585957E0,1.872060001E-1,-3.059119940E0,3.293432615E0
5.713927102E0,1.205585957E0,1.872060001E-1,-3.059119940E0,3.293432615E0
5.718925250E0,1.205585957E0,1.872060001E-1,-3.059119940E0,3.293432615E0
5.723923405E0,1.205585957E0,1.872060001E-1,-3.059119940E0,3.293432615E0
5.728921849E0,1.477046967E0,6.297600269E-2,-2.185962915E0,2.638951986E0
5.733920310E0,1.477046967E0,6.297600269E-2,-2.185962915E0,2.638951986E0
5.738918905E0,1.477046967E0,6.297600269E-2,-2.185962915E0,2.638951986E0
5.743917520E0,1.477046967E0,6.297600269E-2,-2.185962915E0,2.638951986E0
5.748915981E0,1.820726037E0,2.876600064E-2,-1.419785023E0,2.309038825E0
5.753914444E0,1.820726037E0,2.876600064E-2,-1.419785023E0,2.309038825E0
5.758912464E0,1.820726037E0,2.876600064E-2,-1.419785023E0,2.309038825E0
5.763910463E0,1.820726037E0,2.876600064E-2,-1.419785023E0,2.309038825E0
5.768908925E0,2.018779993E0,2.301349938E-1,-8.241279721E-1,2.192628945E0
5.773907386E0,2.018779993E0,2.301349938E-1,-8.241279721E-1,2.192628945E0
5.778905578E0,2.018779993E0,2.301349938E-1,-8.241279721E-1,2.192628945E0
5.783903771E0,2.018779993E0,2.301349938E-1,-8.241279721E-1,2.192628945E0
5.788901887E0,2.081090927E0,4.574150145E-1,-4.021070004E-1,2.168376808E0
5.793900002E0,2.081090927E0,4.574150145E-1,-4.021070004E-1,2.168376808E0
5.798899411E0,2.081090927E0,4.574150145E-1,-4.021070004E-1,2.168376808E0
5.803898834E0,2.081090927E0,4.574150145E-1,-4.021070004E-1,2.168376808E0
5.808898217E0,1.995676994E0,6.883019805E-1,4.528999794E-3,2.111044006E0
5.813897602E0,1.995676994E0,6.883019805E-1,4.528999794E-3,2.111044006E0
5.818896223E0,1.995676994E0,6.883019805E-1,4.528999794E-3,2.111044006E0
5.823894838E0,1.995676994E0,6.883019805E-1,4.528999794E-3,2.111044006E0
5.828893454E0,1.852594972E0,8.572760224E-1,8.075910211E-1,2.195275282E0
5.833892069E0,1.852594972E0,8.572760224E-1,8.075910211E-1,2.195275282E0
5.838891006E0,1.852594972E0,8.572760224E-1,8.075910211E-1,2.195275282E0
5.843889929E0,1.852594972E0,8.572760224E-1,8.075910211E-1,2.195275282E0
5.848888852E0,1.745591044E0,9.430540204E-1,1.825767994E0,2.696269228E0
5.853887775E0,1.745591044E0,9.430540204E-1,1.825767994E0,2.696269228E0
5.858886203E0,1.745591044E0,9.430540204E-1,1.825767994E0,2.696269228E0
5.863884626E0,1.745591044E0,9.430540204E-1,1.825767994E0,2.696269228E0
5.868882665E0,1.699159980E0,9.669029713E-1,2.621932983E0,3.270562423E0
5.873880704E0,1.699159980E0,9.669029713E-1,2.621932983E0,3.270562423E0
5.878879306E0,1.699159980E0,9.669029713E-1,2.621932983E0,3.270562423E0
5.883877921E0,1.699159980E0,9.669029713E-1,2.621932983E0,3.270562423E0
5.888875727E0,1.659554958E0,9.514350295E-1,3.215358019E0,3.741373874E0
5.893873536E0,1.659554958E0,9.514350295E-1,3.215358019E0,3.741373874E0
5.898872777E0,1.659554958E0,9.514350295E-1,3.215358019E0,3.741373874E0
5.903872008E0,1.659554958E0,9.514350295E-1,3.215358019E0,3.741373874E0
5.908870353E0,1.565762997E0,9.373329878E-1,3.570969105E0,4.010240297E0
5.913868700E0,1.565762997E0,9.373329878E-1,3.570969105E0,4.010240297E0
5.918867763E0,1.565762997E0,9.373329878E-1,3.570969105E0,4.010240297E0
5.923866840E0,1.565762997E0,9.373329878E-1,3.570969105E0,4.010240297E0
5.928865587E0,1.436663032E0,9.563109875E-1,3.521352053E0,3.921536899E0
5.933864358E0,1.436663032E0,9.563109875E-1,3.521352053E0,3.921536899E0
5.938863094E0,1.436663032E0,9.563109875E-1,3.521352053E0,3.921536899E0
5.943861863E0,1.436663032E0,9.563109875E-1,3.521352053E0,3.921536899E0
5.948860594E0,1.267542005E0,1.002199054E0,3.233860970E0,3.615096464E0
5.953859325E0,1.267542005E0,1.002199054E0,3.233860970E0,3.615096464E0
5.958857055E0,1.267542005E0,1.002199054E0,3.233860970E0,3.615096464E0
5.963854786E0,1.267542005E0,1.002199054E0,3.233860970E0,3.615096464E0
5.968853710E0,1.065507054E0,1.085361958E0,2.827991009E0,3.211051075E0
5.973852633E0,1.065507054E0,1.085361958E0,2.827991009E0,3.211051075E0
5.978851358E0,1.065507054E0,1.085361958E0,2.827991009E0,3.211051075E0
5.983850089E0,1.065507054E0,1.085361958E0,2.827991009E0,3.211051075E0
5.988849667E0,8.402879834E-1,1.190932989E0,2.511404991E0,2.903714915E0
5.993849242E0,8.402879834E-1,1.190932989E0,2.511404991E0,2.903714915E0
5.998847986E0,8.402879834E-1,1.190932989E0,2.511404991E0,2.903714915E0
6.003846719E0,8.402879834E-1,1.190932989E0,2.511404991E0,2.903714915E0
6.008845950E0,4.402619898E-1,1.278818965E0,2.333498955E0,2.697114372E0
6.013845181E0,4.402619898E-1,1.278818965E0,2.333498955E0,2.697114372E0
6.018842876E0,4.402619898E-1,1.278818965E0,2.333498955E0,2.697114372E0
6.023840569E0,4.402619898E-1,1.278818965E0,2.333498955E0,2.697114372E0
6.028839224E0,-7.274200022E-2,1.338824034E0,2.418663025E0,2.765442464E0
6.033837877E0,-7.274200022E-2,1.338824034E0,2.418663025E0,2.765442464E0
6.038835728E0,-7.274200022E-2,1.338824034E0,2.418663025E0,2.765442464E0
6.043833575E0,-7.274200022E-2,1.338824034E0,2.418663025E0,2.765442464E0
6.048832922E0,-4.954499900E-1,1.371013999E0,2.550360918E0,2.937599512E0
6.053832267E0,-4.954499900E-1,1.371013999E0,2.550360918E0,2.937599512E0
6.058830160E0,-4.954499900E-1,1.371013999E0,2.550360918E0,2.937599512E0
6.063828045E0,-4.954499900E-1,1.371013999E0,2.550360918E0,2.937599512E0
6.068825738E0,-7.998390198E-1,1.369060993E0,2.709992886E0,3.139766218E0
6.073823431E0,-7.998390198E-1,1.369060993E0,2.709992886E0,3.139766218E0
6.078821392E0,-7.998390198E-1,1.369060993E0,2.709992886E0,3.139766218E0
6.083819353E0,-7.998390198E-1,1.369060993E0,2.709992886E0,3.139766218E0
6.088818276E0,-9.755929708E-1,1.348003030E0,2.866960049E0,3.314868585E0
6.093817199E0,-9.755929708E-1,1.348003030E0,2.866960049E0,3.314868585E0
6.098815233E0,-9.755929708E-1,1.348003030E0,2.866960049E0,3.314868585E0
6.103813272E0,-9.755929708E-1,1.348003030E0,2.866960049E0,3.314868585E0
6.108811889E0,-1.027291059E0,1.320152998E0,2.983689070E0,3.420603941E0
6.113810504E0,-1.027291059E0,1.320152998E0,2.983689070E0,3.420603941E0
6.118809569E0,-1.027291059E0,1.320152998E0,2.983689070E0,3.420603941E0
6.123808646E0,-1.027291059E0,1.320152998E0,2.983689070E0,3.420603941E0
6.128807054E0,-9.922260046E-1,1.286901951E0,3.018049002E0,3.427717732E0
6.133805479E0,-9.922260046E-1,1.286901951E0,3.018049002E0,3.427717732E0
6.138804744E0,-9.922260046E-1,1.286901951E0,3.018049002E0,3.427717732E0
6.143804013E0,-9.922260046E-1,1.286901951E0,3.018049002E0,3.427717732E0
6.148802742E0,-9.241960049E-1,1.247210026E0,2.953614950E0,3.336691831E0
6.153801475E0,-9.241960049E-1,1.247210026E0,2.953614950E0,3.336691831E0
6.158800258E0,-9.241960049E-1,1.247210026E0,2.953614950E0,3.336691831E0
6.163799065E0,-9.241960049E-1,1.247210026E0,2.953614950E0,3.336691831E0
6.168796910E0,-8.710640073E-1,1.183541059E0,2.800087929E0,3.162279930E0
6.173794757E0,-8.710640073E-1,1.183541059E0,2.800087929E0,3.162279930E0
6.178793364E0,-8.710640073E-1,1.183541059E0,2.800087929E0,3.162279930E0
6.183791979E0,-8.710640073E-1,1.183541059E0,2.800087929E0,3.162279930E0
6.188791325E0,-8.519549966E-1,1.109290004E0,2.611057043E0,2.962088876E0
6.193790672E0,-8.519549966E-1,1.109290004E0,2.611057043E0,2.962088876E0
6.198789333E0,-8.519549966E-1,1.109290004E0,2.611057043E0,2.962088876E0
6.203787988E0,-8.519549966E-1,1.109290004E0,2.611057043E0,2.962088876E0
6.208787027E0,-8.476589918E-1,1.021823049E0,2.424345016E0,2.764072515E0
6.213786064E0,-8.476589918E-1,1.021823049E0,2.424345016E0,2.764072515E0
6.218783948E0,-8.476589918E-1,1.021823049E0,2.424345016E0,2.764072515E0
6.223781833E0,-8.476589918E-1,1.021823049E0,2.424345016E0,2.764072515E0
6.228780873E0,-8.515430093E-1,9.140999913E-1,2.270252943E0,2.591283990E0
6.233779910E0,-8.515430093E-1,9.140999913E-1,2.270252943E0,2.591283990E0
6.238778539E0,-8.515430093E-1,9.140999913E-1,2.270252943E0,2.591283990E0
6.243777156E0,-8.515430093E-1,9.140999913E-1,2.270252943E0,2.591283990E0
6.248775309E0,-8.748819828E-1,7.848340273E-1,2.168611050E0,2.466628634E0
6.253773464E0,-8.748819828E-1,7.848340273E-1,2.168611050E0,2.466628634E0
6.258772686E0,-8.748819828E-1,7.848340273E-1,2.168611050E0,2.466628634E0
6.263771915E0,-8.748819828E-1,7.848340273E-1,2.168611050E0,2.466628634E0
6.268770877E0,-9.307720065E-1,6.295490265E-1,2.093851089E0,2.376316664E0
6.273769840E0,-9.307720065E-1,6.295490265E-1,2.093851089E0,2.376316664E0
6.278768729E0,-9.307720065E-1,6.295490265E-1,2.093851089E0,2.376316664E0
6.283767614E0,-9.307720065E-1,6.295490265E-1,2.093851089E0,2.376316664E0
6.288766537E0,-1.134145021E0,4.491400123E-1,2.040976048E0,2.377728939E0
6.293765460E0,-1.134145021E0,4.491400123E-1,2.040976048E0,2.377728939E0
6.298763786E0,-1.134145021E0,4.491400123E-1,2.040976048E0,2.377728939E0
6.303762133E0,-1.134145021E0,4.491400123E-1,2.040976048E0,2.377728939E0
6.308759940E0,-1.270071983E0,2.629530132E-1,1.996430993E0,2.380748588E0
6.313757749E0,-1.270071983E0,2.629530132E-1,1.996430993E0,2.380748588E0
6.318756421E0,-1.270071983E0,2.629530132E-1,1.996430993E0,2.380748588E0
6.323755074E0,-1.270071983E0,2.629530132E-1,1.996430993E0,2.380748588E0
6.328752727E0,-1.303920984E0,8.822499961E-2,1.884284019E0,2.293146277E0
6.333750382E0,-1.303920984E0,8.822499961E-2,1.884284019E0,2.293146277E0
6.338748060E0,-1.303920984E0,8.822499961E-2,1.884284019E0,2.293146277E0
6.343745753E0,-1.303920984E0,8.822499961E-2,1.884284019E0,2.293146277E0
6.348743906E0,-1.249755979E0,-4.872800037E-2,1.375288963E0,1.858947056E0
6.353742061E0,-1.249755979E0,-4.872800037E-2,1.375288963E0,1.858947056E0
6.358740392E0,-1.249755979E0,-4.872800037E-2,1.375288963E0,1.858947056E0
6.363738739E0,-1.249755979E0,-4.872800037E-2,1.375288963E0,1.858947056E0
6.368736737E0,-1.145450950E0,-1.287540048E-1,9.249989986E-1,1.477923753E0
6.373734738E0,-1.145450950E0,-1.287540048E-1,9.249989986E-1,1.477923753E0
6.378732705E0,-1.145450950E0,-1.287540048E-1,9.249989986E-1,1.477923753E0
6.383730666E0,-1.145450950E0,-1.287540048E-1,9.249989986E-1,1.477923753E0
6.388728975E0,-1.036524057E0,-1.814679950E-1,5.515080094E-1,1.188054645E0
6.393727282E0,-1.036524057E0,-1.814679950E-1,5.515080094E-1,1.188054645E0
6.398725312E0,-1.036524057E0,-1.814679950E-1,5.515080094E-1,1.188054645E0
6.403723313E0,-1.036524057E0,-1.814679950E-1,5.515080094E-1,1.188054645E0
6.408721930E0,-9.071440101E-1,-2.149219960E-1,2.500280142E-1,9.652024281E-1
6.413720545E0,-9.071440101E-1,-2.149219960E-1,2.500280142E-1,9.652024281E-1
6.418718569E0,-9.071440101E-1,-2.149219960E-1,2.500280142E-1,9.652024281E-1
6.423716608E0,-9.071440101E-1,-2.149219960E-1,2.500280142E-1,9.652024281E-1
6.428715325E0,-7.284600139E-1,-2.228530049E-1,-1.923269928E-1,7.856889497E-1
6.433714056E0,-7.284600139E-1,-2.228530049E-1,-1.923269928E-1,7.856889497E-1
6.438712516E0,-7.284600139E-1,-2.228530049E-1,-1.923269928E-1,7.856889497E-1
6.443710979E0,-7.284600139E-1,-2.228530049E-1,-1.923269928E-1,7.856889497E-1
6.448709791E0,-5.328270197E-1,-1.908019930E-1,-7.424960136E-1,9.336007518E-1
6.453708560E0,-5.328270197E-1,-1.908019930E-1,-7.424960136E-1,9.336007518E-1
6.458706727E0,-5.328270197E-1,-1.908019930E-1,-7.424960136E-1,9.336007518E-1
6.463704882E0,-5.328270197E-1,-1.908019930E-1,-7.424960136E-1,9.336007518E-1
6.468704576E0,-4.032759964E-1,-1.092009991E-1,-1.212931037E0,1.282871033E0
6.473704267E0,-4.032759964E-1,-1.092009991E-1,-1.212931037E0,1.282871033E0
6.478703377E0,-4.032759964E-1,-1.092009991E-1,-1.212931037E0,1.282871033E0
6.483702492E0,-4.032759964E-1,-1.092009991E-1,-1.212931037E0,1.282871033E0
6.488701724E0,-3.699310124E-1,6.941000000E-3,-1.638965011E0,1.680209343E0
6.493700955E0,-3.699310124E-1,6.941000000E-3,-1.638965011E0,1.680209343E0
6.498699222E0,-3.699310124E-1,6.941000000E-3,-1.638965011E0,1.680209343E0
6.503697493E0,-3.699310124E-1,6.941000000E-3,-1.638965011E0,1.680209343E0
6.508695839E0,-3.833000064E-1,1.529490054E-1,-1.983330965E0,2.025811938E0
6.513694186E0,-3.833000064E-1,1.529490054E-1,-1.983330965E0,2.025811938E0
6.518692338E0,-3.833000064E-1,1.529490054E-1,-1.983330965E0,2.025811938E0
6.523690493E0,-3.833000064E-1,1.529490054E-1,-1.983330965E0,2.025811938E0
6.528688792E0,-3.530189991E-1,3.124859929E-1,-2.206613064E0,2.256415547E0
6.533687099E0,-3.530189991E-1,3.124859929E-1,-2.206613064E0,2.256415547E0
6.538685847E0,-3.530189991E-1,3.124859929E-1,-2.206613064E0,2.256415547E0
6.543684578E0,-3.530189991E-1,3.124859929E-1,-2.206613064E0,2.256415547E0
6.548683193E0,-2.512879968E-1,4.514690042E-1,-2.316277027E0,2.373206520E0
6.553681810E0,-2.512879968E-1,4.514690042E-1,-2.316277027E0,2.373206520E0
6.558680623E0,-2.512879968E-1,4.514690042E-1,-2.316277027E0,2.373206520E0
6.563679430E0,-2.512879968E-1,4.514690042E-1,-2.316277027E0,2.373206520E0
6.568677545E0,-1.405169964E-1,5.695359707E-1,-2.375952005E0,2.447297322E0
6.573675660E0,-1.405169964E-1,5.695359707E-1,-2.375952005E0,2.447297322E0
6.578674335E0,-1.405169964E-1,5.695359707E-1,-2.375952005E0,2.447297322E0
6.583672988E0,-1.405169964E-1,5.695359707E-1,-2.375952005E0,2.447297322E0
6.588670949E0,-7.831300050E-2,6.638770103E-1,-2.427459002E0,2.517821045E0
6.593668912E0,-7.831300050E-2,6.638770103E-1,-2.427459002E0,2.517821045E0
6.598667426E0,-7.831300050E-2,6.638770103E-1,-2.427459002E0,2.517821045E0
6.603665925E0,-7.831300050E-2,6.638770103E-1,-2.427459002E0,2.517821045E0
6.608664810E0,-7.459100336E-2,7.196840048E-1,-2.445636034E0,2.550420455E0
6.613663695E0,-7.459100336E-2,7.196840048E-1,-2.445636034E0,2.550420455E0
6.618662786E0,-7.459100336E-2,7.196840048E-1,-2.445636034E0,2.550420455E0
6.623661863E0,-7.459100336E-2,7.196840048E-1,-2.445636034E0,2.550420455E0
6.628660670E0,-7.535000145E-2,7.250620127E-1,-2.372482061E0,2.481947557E0
6.633659479E0,-7.535000145E-2,7.250620127E-1,-2.372482061E0,2.481947557E0
6.638657483E0,-7.535000145E-2,7.250620127E-1,-2.372482061E0,2.481947557E0
6.643655484E0,-7.535000145E-2,7.250620127E-1,-2.372482061E0,2.481947557E0
6.648653792E0,-3.096099943E-2,6.720190048E-1,-2.038289070E0,2.146436689E0
6.653652099E0,-3.096099943E-2,6.720190048E-1,-2.038289070E0,2.146436689E0
6.658650815E0,-3.096099943E-2,6.720190048E-1,-2.038289070E0,2.146436689E0
6.663649546E0,-3.096099943E-2,6.720190048E-1,-2.038289070E0,2.146436689E0
6.668648776E0,5.912699923E-2,5.636680126E-1,-1.696354985E0,1.788529526E0
6.673648007E0,5.912699923E-2,5.636680126E-1,-1.696354985E0,1.788529526E0
6.678646800E0,5.912699923E-2,5.636680126E-1,-1.696354985E0,1.788529526E0
6.683645609E0,5.912699923E-2,5.636680126E-1,-1.696354985E0,1.788529526E0
6.688643570E0,1.309950054E-1,4.360029995E-1,-1.361894011E0,1.435971311E0
6.693641531E0,1.309950054E-1,4.360029995E-1,-1.361894011E0,1.435971311E0
6.698640201E0,1.309950054E-1,4.360029995E-1,-1.361894011E0,1.435971311E0
6.703638854E0,1.309950054E-1,4.360029995E-1,-1.361894011E0,1.435971311E0
6.708637469E0,1.377940029E-1,2.908670008E-1,-1.041524053E0,1.090120705E0
6.713636084E0,1.377940029E-1,2.908670008E-1,-1.041524053E0,1.090120705E0
6.718635272E0,1.377940029E-1,2.908670008E-1,-1.041524053E0,1.090120705E0
6.723634465E0,1.377940029E-1,2.908670008E-1,-1.041524053E0,1.090120705E0
6.728633983E0,1.098880023E-1,1.352549940E-1,-7.489169836E-1,7.689251815E-1
6.733633522E0,1.098880023E-1,1.352549940E-1,-7.489169836E-1,7.689251815E-1
6.738631813E0,1.098880023E-1,1.352549940E-1,-7.489169836E-1,7.689251815E-1
6.743630122E0,1.098880023E-1,1.352549940E-1,-7.489169836E-1,7.689251815E-1
6.748628622E0,1.117620021E-1,-1.133800019E-2,-5.043249726E-1,5.166845976E-1
6.753627121E0,1.117620021E-1,-1.133800019E-2,-5.043249726E-1,5.166845976E-1
6.758625890E0,1.117620021E-1,-1.133800019E-2,-5.043249726E-1,5.166845976E-1
6.763624661E0,1.117620021E-1,-1.133800019E-2,-5.043249726E-1,5.166845976E-1
6.768623429E0,1.693120003E-1,-1.137640029E-1,-3.175500035E-1,3.774212587E-1
6.773622198E0,1.693120003E-1,-1.137640029E-1,-3.175500035E-1,3.774212587E-1
6.778621560E0,1.693120003E-1,-1.137640029E-1,-3.175500035E-1,3.774212587E-1
6.783620905E0,1.693120003E-1,-1.137640029E-1,-3.175500035E-1,3.774212587E-1
6.788619057E0,2.678900063E-1,-1.614190042E-1,-2.402240038E-1,3.943713002E-1
6.793617212E0,2.678900063E-1,-1.614190042E-1,-2.402240038E-1,3.943713002E-1
6.798614881E0,2.678900063E-1,-1.614190042E-1,-2.402240038E-1,3.943713002E-1
6.803612574E0,2.678900063E-1,-1.614190042E-1,-2.402240038E-1,3.943713002E-1
6.808611383E0,3.543440104E-1,-1.716610044E-1,-2.588610053E-1,4.712071712E-1
6.813610190E0,3.543440104E-1,-1.716610044E-1,-2.588610053E-1,4.712071712E-1
6.818608155E0,3.543440104E-1,-1.716610044E-1,-2.588610053E-1,4.712071712E-1
6.823606118E0,3.543440104E-1,-1.716610044E-1,-2.588610053E-1,4.712071712E-1
6.828604156E0,3.888860047E-1,-1.716589928E-1,-3.059909940E-1,5.237648545E-1
6.833602195E0,3.888860047E-1,-1.716589928E-1,-3.059909940E-1,5.237648545E-1
6.838600598E0,3.888860047E-1,-1.716589928E-1,-3.059909940E-1,5.237648545E-1
6.843599021E0,3.888860047E-1,-1.716589928E-1,-3.059909940E-1,5.237648545E-1
6.848597790E0,3.561410010E-1,-1.781000048E-1,-2.978079915E-1,4.972379954E-1
6.853596559E0,3.561410010E-1,-1.781000048E-1,-2.978079915E-1,4.972379954E-1
6.858594713E0,3.561410010E-1,-1.781000048E-1,-2.978079915E-1,4.972379954E-1
6.863592906E0,3.561410010E-1,-1.781000048E-1,-2.978079915E-1,4.972379954E-1
6.868591330E0,2.776300013E-1,-1.940660030E-1,-5.240499973E-2,3.427627680E-1
6.873589753E0,2.776300013E-1,-1.940660030E-1,-5.240499973E-2,3.427627680E-1
6.878588175E0,2.776300013E-1,-1.940660030E-1,-5.240499973E-2,3.427627680E-1
6.883586638E0,2.776300013E-1,-1.940660030E-1,-5.240499973E-2,3.427627680E-1
6.888584983E0,1.738239974E-1,-2.126280069E-1,1.950819939E-1,3.368715419E-1
6.893583330E0,1.738239974E-1,-2.126280069E-1,1.950819939E-1,3.368715419E-1
6.898582065E0,1.738239974E-1,-2.126280069E-1,1.950819939E-1,3.368715419E-1
6.903580796E0,1.738239974E-1,-2.126280069E-1,1.950819939E-1,3.368715419E-1
6.908578333E0,3.198900074E-2,-1.985210031E-1,3.638080060E-1,4.156803461E-1
6.913575872E0,3.198900074E-2,-1.985210031E-1,3.638080060E-1,4.156803461E-1
6.918573402E0,3.198900074E-2,-1.985210031E-1,3.638080060E-1,4.156803461E-1
6.923570941E0,3.198900074E-2,-1.985210031E-1,3.638080060E-1,4.156803461E-1
6.928569147E0,-1.595260054E-1,-1.200679988E-1,2.403060049E-1,3.124289467E-1
6.933567340E0,-1.595260054E-1,-1.200679988E-1,2.403060049E-1,3.124289467E-1
6.938565622E0,-1.595260054E-1,-1.200679988E-1,2.403060049E-1,3.124289467E-1
6.943563891E0,-1.595260054E-1,-1.200679988E-1,2.403060049E-1,3.124289467E-1
6.948562352E0,-3.770239949E-1,-1.429000054E-3,-8.205600083E-2,3.858527207E-1
6.953560815E0,-3.770239949E-1,-1.429000054E-3,-8.205600083E-2,3.858527207E-1
6.958559896E0,-3.770239949E-1,-1.429000054E-3,-8.205600083E-2,3.858527207E-1
6.963558973E0,-3.770239949E-1,-1.429000054E-3,-8.205600083E-2,3.858527207E-1
6.968556818E0,-5.656840205E-1,1.198550016E-1,-3.728869855E-1,6.880467546E-1
6.973554665E0,-5.656840205E-1,1.198550016E-1,-3.728869855E-1,6.880467546E-1
6.978552512E0,-5.656840205E-1,1.198550016E-1,-3.728869855E-1,6.880467546E-1
6.983550359E0,-5.656840205E-1,1.198550016E-1,-3.728869855E-1,6.880467546E-1
6.988549744E0,-6.585190296E-1,2.005030066E-1,-5.892149806E-1,9.061032289E-1
6.993549127E0,-6.585190296E-1,2.005030066E-1,-5.892149806E-1,9.061032289E-1
6.998547478E0,-6.585190296E-1,2.005030066E-1,-5.892149806E-1,9.061032289E-1
7.003545825E0,-6.585190296E-1,2.005030066E-1,-5.892149806E-1,9.061032289E-1
7.008544094E0,-4.718660116E-1,2.392430007E-1,-6.892129779E-1,8.688551520E-1
7.013542363E0,-4.718660116E-1,2.392430007E-1,-6.892129779E-1,8.688551520E-1
7.018541339E0,-4.718660116E-1,2.392430007E-1,-6.892129779E-1,8.688551520E-1
7.023540300E0,-4.718660116E-1,2.392430007E-1,-6.892129779E-1,8.688551520E-1
7.028538722E0,-1.193299964E-1,2.516790032E-1,-6.858220100E-1,7.402255049E-1
7.033537147E0,-1.193299964E-1,2.516790032E-1,-6.858220100E-1,7.402255049E-1
7.038535801E0,-1.193299964E-1,2.516790032E-1,-6.858220100E-1,7.402255049E-1
7.043534454E0,-1.193299964E-1,2.516790032E-1,-6.858220100E-1,7.402255049E-1
7.048532723E0,1.594520062E-1,2.499070019E-1,-6.332759857E-1,6.992259477E-1
7.053530992E0,1.594520062E-1,2.499070019E-1,-6.332759857E-1,6.992259477E-1
7.058528839E0,1.594520062E-1,2.499070019E-1,-6.332759857E-1,6.992259477E-1
7.063526686E0,1.594520062E-1,2.499070019E-1,-6.332759857E-1,6.992259477E-1
7.068524575E0,3.069880009E-1,2.310020030E-1,-5.677649975E-1,6.855367608E-1
7.073522460E0,3.069880009E-1,2.310020030E-1,-5.677649975E-1,6.855367608E-1
7.078520651E0,3.069880009E-1,2.310020030E-1,-5.677649975E-1,6.855367608E-1
7.083518806E0,3.069880009E-1,2.310020030E-1,-5.677649975E-1,6.855367608E-1
7.088517267E0,3.182570040E-1,2.012860030E-1,-5.083299875E-1,6.326159592E-1
7.093515728E0,3.182570040E-1,2.012860030E-1,-5.083299875E-1,6.326159592E-1
7.098514305E0,3.182570040E-1,2.012860030E-1,-5.083299875E-1,6.326159592E-1
7.103512882E0,3.182570040E-1,2.012860030E-1,-5.083299875E-1,6.326159592E-1
7.108511228E0,2.364919931E-1,1.722809970E-1,-4.440740049E-1,5.317997053E-1
7.113509575E0,2.364919931E-1,1.722809970E-1,-4.440740049E-1,5.317997053E-1
7.118508300E0,2.364919931E-1,1.722809970E-1,-4.440740049E-1,5.317997053E-1
7.123507031E0,2.364919931E-1,1.722809970E-1,-4.440740049E-1,5.317997053E-1
7.128505684E0,1.178029999E-1,1.485940069E-1,-3.426359892E-1,3.916084100E-1
7.133504339E0,1.178029999E-1,1.485940069E-1,-3.426359892E-1,3.916084100E-1
7.138502482E0,1.178029999E-1,1.485940069E-1,-3.426359892E-1,3.916084100E-1
7.143500597E0,1.178029999E-1,1.485940069E-1,-3.426359892E-1,3.916084100E-1
7.148499367E0,8.620999753E-3,1.291429996E-1,-1.976410002E-1,2.362502930E-1
7.153498136E0,8.620999753E-3,1.291429996E-1,-1.976410002E-1,2.362502930E-1
7.158497390E0,8.620999753E-3,1.291429996E-1,-1.976410002E-1,2.362502930E-1
7.163496661E0,8.620999753E-3,1.291429996E-1,-1.976410002E-1,2.362502930E-1
7.168495121E0,-4.557999969E-2,1.088190004E-1,-5.718800053E-2,1.311090334E-1
7.173493584E0,-4.557999969E-2,1.088190004E-1,-5.718800053E-2,1.311090334E-1
7.178492920E0,-4.557999969E-2,1.088190004E-1,-5.718800053E-2,1.311090334E-1
7.183492265E0,-4.557999969E-2,1.088190004E-1,-5.718800053E-2,1.311090334E-1
7.188490726E0,-6.200499833E-2,8.797299862E-2,4.277500138E-2,1.158169636E-1
7.193489189E0,-6.200499833E-2,8.797299862E-2,4.277500138E-2,1.158169636E-1
7.198487848E0,-6.200499833E-2,8.797299862E-2,4.277500138E-2,1.158169636E-1
7.203486501E0,-6.200499833E-2,8.797299862E-2,4.277500138E-2,1.158169636E-1
7.208485117E0,-4.640899971E-2,6.518500298E-2,1.111200005E-1,1.369325906E-1
7.213483732E0,-4.640899971E-2,6.518500298E-2,1.111200005E-1,1.369325906E-1
7.218481082E0,-4.640899971E-2,6.518500298E-2,1.111200005E-1,1.369325906E-1
7.223478467E0,-4.640899971E-2,6.518500298E-2,1.111200005E-1,1.369325906E-1
7.228476738E0,-2.676099911E-2,3.323300183E-2,2.016090006E-1,2.060746772E-1
7.233475007E0,-2.676099911E-2,3.323300183E-2,2.016090006E-1,2.060746772E-1
7.238473313E0,-2.676099911E-2,3.323300183E-2,2.016090006E-1,2.060746772E-1
7.243471622E0,-2.676099911E-2,3.323300183E-2,2.016090006E-1,2.060746772E-1
7.248470121E0,-1.557100005E-2,-3.911999986E-3,5.048369765E-1,5.050922021E-1
7.253468622E0,-1.557100005E-2,-3.911999986E-3,5.048369765E-1,5.050922021E-1
7.258466929E0,-1.557100005E-2,-3.911999986E-3,5.048369765E-1,5.050922021E-1
7.263465238E0,-1.557100005E-2,-3.911999986E-3,5.048369765E-1,5.050922021E-1
7.268463084E0,-2.047500014E-2,-3.889400139E-2,8.134909868E-1,8.146775771E-1
7.273460929E0,-2.047500014E-2,-3.889400139E-2,8.134909868E-1,8.146775771E-1
7.278459660E0,-2.047500014E-2,-3.889400139E-2,8.134909868E-1,8.146775771E-1
7.283458391E0,-2.047500014E-2,-3.889400139E-2,8.134909868E-1,8.146775771E-1
7.288457660E0,-5.376699939E-2,-5.098700151E-2,1.210240960E0,1.212507215E0
7.293456929E0,-5.376699939E-2,-5.098700151E-2,1.210240960E0,1.212507215E0
7.298455400E0,-5.376699939E-2,-5.098700151E-2,1.210240960E0,1.212507215E0
7.303453863E0,-5.376699939E-2,-5.098700151E-2,1.210240960E0,1.212507215E0
7.308452479E0,-1.439519972E-1,-5.593999848E-2,1.504235029E0,1.512142349E0
7.313451094E0,-1.439519972E-1,-5.593999848E-2,1.504235029E0,1.512142349E0
7.318449949E0,-1.439519972E-1,-5.593999848E-2,1.504235029E0,1.512142349E0
7.323448834E0,-1.439519972E-1,-5.593999848E-2,1.504235029E0,1.512142349E0
7.328447339E0,-4.512189925E-1,-3.612599894E-2,1.645849943E0,1.706963884E0
7.333445840E0,-4.512189925E-1,-3.612599894E-2,1.645849943E0,1.706963884E0
7.338444123E0,-4.512189925E-1,-3.612599894E-2,1.645849943E0,1.706963884E0
7.343442392E0,-4.512189925E-1,-3.612599894E-2,1.645849943E0,1.706963884E0
7.348441201E0,-7.453969717E-1,2.475100011E-2,1.471588969E0,1.649788881E0
7.353440008E0,-7.453969717E-1,2.475100011E-2,1.471588969E0,1.649788881E0
7.358437996E0,-7.453969717E-1,2.475100011E-2,1.471588969E0,1.649788881E0
7.363435997E0,-7.453969717E-1,2.475100011E-2,1.471588969E0,1.649788881E0
7.368434459E0,-9.724429846E-1,9.188500047E-2,1.110476971E0,1.478934520E0
7.373432920E0,-9.724429846E-1,9.188500047E-2,1.110476971E0,1.478934520E0
7.378430699E0,-9.724429846E-1,9.188500047E-2,1.110476971E0,1.478934520E0
7.383428508E0,-9.724429846E-1,9.188500047E-2,1.110476971E0,1.478934520E0
7.388427008E0,-1.111773014E0,1.119439974E-1,8.245840073E-1,1.388707845E0
7.393425509E0,-1.111773014E0,1.119439974E-1,8.245840073E-1,1.388707845E0
7.398424550E0,-1.111773014E0,1.119439974E-1,8.245840073E-1,1.388707845E0
7.403423589E0,-1.111773014E0,1.119439974E-1,8.245840073E-1,1.388707845E0
7.408422241E0,-1.145756006E0,-1.144800037E-1,6.743919849E-1,1.334416369E0
7.413420896E0,-1.145756006E0,-1.144800037E-1,6.743919849E-1,1.334416369E0
7.418419363E0,-1.145756006E0,-1.144800037E-1,6.743919849E-1,1.334416369E0
7.423417824E0,-1.145756006E0,-1.144800037E-1,6.743919849E-1,1.334416369E0
7.428415786E0,-1.103700042E0,-5.126659870E-1,7.889519930E-1,1.450319083E0
7.433413747E0,-1.103700042E0,-5.126659870E-1,7.889519930E-1,1.450319083E0
7.438412566E0,-1.103700042E0,-5.126659870E-1,7.889519930E-1,1.450319083E0
7.443411373E0,-1.103700042E0,-5.126659870E-1,7.889519930E-1,1.450319083E0
7.448409218E0,-1.090083957E0,-8.191909790E-1,1.055598974E0,1.724426307E0
7.453407065E0,-1.090083957E0,-8.191909790E-1,1.055598974E0,1.724426307E0
7.458406013E0,-1.090083957E0,-8.191909790E-1,1.055598974E0,1.724426307E0
7.463404936E0,-1.090083957E0,-8.191909790E-1,1.055598974E0,1.724426307E0
7.468403204E0,-1.292330027E0,-1.051337004E0,1.263169050E0,2.090699032E0
7.473401475E0,-1.292330027E0,-1.051337004E0,1.263169050E0,2.090699032E0
7.478399032E0,-1.292330027E0,-1.051337004E0,1.263169050E0,2.090699032E0
7.483396609E0,-1.292330027E0,-1.051337004E0,1.263169050E0,2.090699032E0
7.488395032E0,-1.471515059E0,-1.197185993E0,1.403220057E0,2.359584159E0
7.493393455E0,-1.471515059E0,-1.197185993E0,1.403220057E0,2.359584159E0
7.498392084E0,-1.471515059E0,-1.197185993E0,1.403220057E0,2.359584159E0
7.503390739E0,-1.471515059E0,-1.197185993E0,1.403220057E0,2.359584159E0
7.508389661E0,-1.578611016E0,-1.256837010E0,1.469297051E0,2.496094116E0
7.513388584E0,-1.578611016E0,-1.256837010E0,1.469297051E0,2.496094116E0
7.518387522E0,-1.578611016E0,-1.256837010E0,1.469297051E0,2.496094116E0
7.523386445E0,-1.578611016E0,-1.256837010E0,1.469297051E0,2.496094116E0
7.528385214E0,-1.549633026E0,-1.241703033E0,1.460598946E0,2.465063532E0
7.533383983E0,-1.549633026E0,-1.241703033E0,1.460598946E0,2.465063532E0
7.538382599E0,-1.549633026E0,-1.241703033E0,1.460598946E0,2.465063532E0
7.543381214E0,-1.549633026E0,-1.241703033E0,1.460598946E0,2.465063532E0
7.548379382E0,-1.264116049E0,-1.177198052E0,1.393666029E0,2.219479588E0
7.553377537E0,-1.264116049E0,-1.177198052E0,1.393666029E0,2.219479588E0
7.558376615E0,-1.264116049E0,-1.177198052E0,1.393666029E0,2.219479588E0
7.563375690E0,-1.264116049E0,-1.177198052E0,1.393666029E0,2.219479588E0
7.568374256E0,-7.932689786E-1,-1.073866963E0,1.293836951E0,1.859161097E0
7.573372835E0,-7.932689786E-1,-1.073866963E0,1.293836951E0,1.859161097E0
7.578370378E0,-7.932689786E-1,-1.073866963E0,1.293836951E0,1.859161097E0
7.583367917E0,-7.932689786E-1,-1.073866963E0,1.293836951E0,1.859161097E0
7.588366532E0,-2.077520043E-1,-9.399899840E-1,1.180590987E0,1.523330937E0
7.593365147E0,-2.077520043E-1,-9.399899840E-1,1.180590987E0,1.523330937E0
7.598362896E0,-2.077520043E-1,-9.399899840E-1,1.180590987E0,1.523330937E0
7.603360627E0,-2.077520043E-1,-9.399899840E-1,1.180590987E0,1.523330937E0
7.608359397E0,2.613570094E-1,-7.772769928E-1,1.053403020E0,1.334962521E0
7.613358166E0,2.613570094E-1,-7.772769928E-1,1.053403020E0,1.334962521E0
7.618356174E0,2.613570094E-1,-7.772769928E-1,1.053403020E0,1.334962521E0
7.623354175E0,2.613570094E-1,-7.772769928E-1,1.053403020E0,1.334962521E0
7.628353985E0,6.082159877E-1,-6.031259894E-1,9.347620010E-1,1.267859474E0
7.633353792E0,6.082159877E-1,-6.031259894E-1,9.347620010E-1,1.267859474E0
7.638353314E0,6.082159877E-1,-6.031259894E-1,9.347620010E-1,1.267859474E0
7.643352853E0,6.082159877E-1,-6.031259894E-1,9.347620010E-1,1.267859474E0
7.648351622E0,8.216339946E-1,-4.325929880E-1,8.568289876E-1,1.263477356E0
7.653350391E0,8.216339946E-1,-4.325929880E-1,8.568289876E-1,1.263477356E0
7.658349499E0,8.216339946E-1,-4.325929880E-1,8.568289876E-1,1.263477356E0
7.663348614E0,8.216339946E-1,-4.325929880E-1,8.568289876E-1,1.263477356E0
7.668346882E0,9.126899838E-1,-2.618420124E-1,8.221049905E-1,1.255954164E0
7.673345153E0,9.126899838E-1,-2.618420124E-1,8.221049905E-1,1.255954164E0
7.678344095E0,9.126899838E-1,-2.618420124E-1,8.221049905E-1,1.255954164E0
7.683343018E0,9.126899838E-1,-2.618420124E-1,8.221049905E-1,1.255954164E0
7.688341517E0,9.461650252E-1,-8.811400086E-2,8.119900227E-1,1.249928050E0
7.693340018E0,9.461650252E-1,-8.811400086E-2,8.119900227E-1,1.249928050E0
7.698338590E0,9.461650252E-1,-8.811400086E-2,8.119900227E-1,1.249928050E0
7.703337167E0,9.461650252E-1,-8.811400086E-2,8.119900227E-1,1.249928050E0
7.708335666E0,9.508810043E-1,1.004600003E-1,7.673479915E-1,1.226005643E0
7.713334167E0,9.508810043E-1,1.004600003E-1,7.673479915E-1,1.226005643E0
7.718332931E0,9.508810043E-1,1.004600003E-1,7.673479915E-1,1.226005643E0
7.723331700E0,9.508810043E-1,1.004600003E-1,7.673479915E-1,1.226005643E0
7.728331078E0,9.361500144E-1,3.011769950E-1,6.479679942E-1,1.177687120E0
7.733330463E0,9.361500144E-1,3.011769950E-1,6.479679942E-1,1.177687120E0
7.738328900E0,9.361500144E-1,3.011769950E-1,6.479679942E-1,1.177687120E0
7.743327363E0,9.361500144E-1,3.011769950E-1,6.479679942E-1,1.177687120E0
7.748325787E0,8.935689926E-1,4.796800017E-1,4.662530124E-1,1.116221448E0
7.753324210E0,8.935689926E-1,4.796800017E-1,4.662530124E-1,1.116221448E0
7.758323143E0,8.935689926E-1,4.796800017E-1,4.662530124E-1,1.116221448E0
7.763322066E0,8.935689926E-1,4.796800017E-1,4.662530124E-1,1.116221448E0
7.768320834E0,8.059759736E-1,6.190959811E-1,2.677989900E-1,1.050996386E0
7.773319603E0,8.059759736E-1,6.190959811E-1,2.677989900E-1,1.050996386E0
7.778317680E0,8.059759736E-1,6.190959811E-1,2.677989900E-1,1.050996386E0
7.783315719E0,8.059759736E-1,6.190959811E-1,2.677989900E-1,1.050996386E0
7.788314296E0,6.796519756E-1,7.055389881E-1,1.326840073E-1,9.885935047E-1
7.793312873E0,6.796519756E-1,7.055389881E-1,1.326840073E-1,9.885935047E-1
7.798312002E0,6.796519756E-1,7.055389881E-1,1.326840073E-1,9.885935047E-1
7.803311117E0,6.796519756E-1,7.055389881E-1,1.326840073E-1,9.885935047E-1
7.808309385E0,5.146020055E-1,7.353360057E-1,1.251769960E-1,9.062028171E-1
7.813307656E0,5.146020055E-1,7.353360057E-1,1.251769960E-1,9.062028171E-1
7.818305824E0,5.146020055E-1,7.353360057E-1,1.251769960E-1,9.062028171E-1
7.823303979E0,5.146020055E-1,7.353360057E-1,1.251769960E-1,9.062028171E-1
7.828302287E0,3.429909945E-1,7.292360067E-1,3.373419940E-1,8.736289812E-1
7.833300594E0,3.429909945E-1,7.292360067E-1,3.373419940E-1,8.736289812E-1
7.838299194E0,3.429909945E-1,7.292360067E-1,3.373419940E-1,8.736289812E-1
7.843297809E0,3.429909945E-1,7.292360067E-1,3.373419940E-1,8.736289812E-1
7.848295962E0,1.934020072E-1,6.989759803E-1,5.777400136E-1,9.272298964E-1
7.853294117E0,1.934020072E-1,6.989759803E-1,5.777400136E-1,9.272298964E-1
7.858291724E0,1.934020072E-1,6.989759803E-1,5.777400136E-1,9.272298964E-1
7.863289301E0,1.934020072E-1,6.989759803E-1,5.777400136E-1,9.272298964E-1
7.868287917E0,8.090700209E-2,6.459839940E-1,9.885950089E-1,1.183706617E0
7.873286532E0,8.090700209E-2,6.459839940E-1,9.885950089E-1,1.183706617E0
7.878284025E0,8.090700209E-2,6.459839940E-1,9.885950089E-1,1.183706617E0
7.883281526E0,8.090700209E-2,6.459839940E-1,9.885950089E-1,1.183706617E0
7.888279257E0,-1.739599928E-2,5.768300295E-1,1.322257042E0,1.442705510E0
7.893276988E0,-1.739599928E-2,5.768300295E-1,1.322257042E0,1.442705510E0
7.898275728E0,-1.739599928E-2,5.768300295E-1,1.322257042E0,1.442705510E0
7.903274459E0,-1.739599928E-2,5.768300295E-1,1.322257042E0,1.442705510E0
7.908272805E0,-8.899299800E-2,5.134130120E-1,1.559576035E0,1.644320553E0
7.913271152E0,-8.899299800E-2,5.134130120E-1,1.559576035E0,1.644320553E0
7.918270214E0,-8.899299800E-2,5.134130120E-1,1.559576035E0,1.644320553E0
7.923269291E0,-8.899299800E-2,5.134130120E-1,1.559576035E0,1.644320553E0
7.928267899E0,-9.704499692E-2,4.607729912E-1,1.651046991E0,1.716882538E0
7.933266478E0,-9.704499692E-2,4.607729912E-1,1.651046991E0,1.716882538E0
7.938264665E0,-9.704499692E-2,4.607729912E-1,1.651046991E0,1.716882538E0
7.943262858E0,-9.704499692E-2,4.607729912E-1,1.651046991E0,1.716882538E0
7.948260858E0,-5.761199817E-2,4.449059963E-1,1.470693946E0,1.537595906E0
7.953258857E0,-5.761199817E-2,4.449059963E-1,1.470693946E0,1.537595906E0
7.958258358E0,-5.761199817E-2,4.449059963E-1,1.470693946E0,1.537595906E0
7.963257857E0,-5.761199817E-2,4.449059963E-1,1.470693946E0,1.537595906E0
7.968256356E0,3.994699940E-2,4.569329917E-1,1.126217008E0,1.216037939E0
7.973254857E0,3.994699940E-2,4.569329917E-1,1.126217008E0,1.216037939E0
7.978253108E0,3.994699940E-2,4.569329917E-1,1.126217008E0,1.216037939E0
7.983251377E0,3.994699940E-2,4.569329917E-1,1.126217008E0,1.216037939E0
7.988249415E0,1.904540062E-1,4.528900087E-1,8.574950099E-1,9.882711068E-1
7.993247454E0,1.904540062E-1,4.528900087E-1,8.574950099E-1,9.882711068E-1
7.998245165E0,1.904540062E-1,4.528900087E-1,8.574950099E-1,9.882711068E-1
8.003242858E0,1.904540062E-1,4.528900087E-1,8.574950099E-1,9.882711068E-1
8.008240858E0,3.498440087E-1,3.815400004E-1,7.074909806E-1,8.766453616E-1
8.013238857E0,3.498440087E-1,3.815400004E-1,7.074909806E-1,8.766453616E-1
8.018237593E0,3.498440087E-1,3.815400004E-1,7.074909806E-1,8.766453616E-1
8.023236324E0,3.498440087E-1,3.815400004E-1,7.074909806E-1,8.766453616E-1
8.028234938E0,4.662869871E-1,2.449309975E-1,6.709120274E-1,8.529582031E-1
8.033233555E0,4.662869871E-1,2.449309975E-1,6.709120274E-1,8.529582031E-1
8.038231169E0,4.662869871E-1,2.449309975E-1,6.709120274E-1,8.529582031E-1
8.043228746E0,4.662869871E-1,2.449309975E-1,6.709120274E-1,8.529582031E-1
8.048227170E0,4.980610013E-1,8.124399930E-2,6.719869971E-1,8.403760306E-1
8.053225593E0,4.980610013E-1,8.124399930E-2,6.719869971E-1,8.403760306E-1
8.058224092E0,4.980610013E-1,8.124399930E-2,6.719869971E-1,8.403760306E-1
8.063222593E0,4.980610013E-1,8.124399930E-2,6.719869971E-1,8.403760306E-1
8.068221784E0,2.974030077E-1,-5.478199944E-2,6.342170238E-1,7.026242593E-1
8.073220977E0,2.974030077E-1,-5.478199944E-2,6.342170238E-1,7.026242593E-1
8.078220367E0,2.974030077E-1,-5.478199944E-2,6.342170238E-1,7.026242593E-1
8.083219790E0,2.974030077E-1,-5.478199944E-2,6.342170238E-1,7.026242593E-1
8.088217751E0,8.380199969E-2,-1.183009967E-1,5.141739845E-1,5.342216650E-1
8.093215714E0,8.380199969E-2,-1.183009967E-1,5.141739845E-1,5.342216650E-1
8.098214199E0,8.380199969E-2,-1.183009967E-1,5.141739845E-1,5.342216650E-1
8.103212698E0,8.380199969E-2,-1.183009967E-1,5.141739845E-1,5.342216650E-1
8.108211159E0,-1.545830071E-1,-9.344200045E-2,2.109439969E-1,2.777133115E-1
